[{"rt":46003,"stimulus":"<p>In this experiment, you will be presented with 8 scenarios, which you must read carefully.</p><p>After reading each scenario, you will be prompted two comprehension questions: a multiple choice question and a brief open answer question. You will be required to answer both questions for every scenario, meaning 16 questions in total.</p><p>To begin the experiment, hit the space bar.</p>","response":" ","trial_type":"html-keyboard-response","trial_index":0,"time_elapsed":46005,"internal_node_id":"0.0-0.0","subject_id":"5e13a1381e2e589db94cd20b","study_id":"6259a891582d1b81b094d7e2","session_id":"6260b95075442bb6f3c65ed6","version":1},{"rt":211141,"response":{"P0_Q0":null,"multiQuestion":"sincere","Explanation":"Nothing in her text suggests otherwise."},"accuracy":[],"embed_level":"b","question_id":"1b","trial_type":"survey","trial_index":1,"time_elapsed":257190,"internal_node_id":"0.0-1.0-0.0-0.0","subject_id":"5e13a1381e2e589db94cd20b","study_id":"6259a891582d1b81b094d7e2","session_id":"6260b95075442bb6f3c65ed6","version":1},{"rt":353764,"response":{"P0_Q0":null,"multiQuestion":"sincere","Explanation":"Nothing sacrcastic about her text. The just exaggerated to convey how enthused she was."},"accuracy":[],"embed_level":"c","question_id":"2c","trial_type":"survey","trial_index":2,"time_elapsed":610953,"internal_node_id":"0.0-1.0-0.1-0.1","subject_id":"5e13a1381e2e589db94cd20b","study_id":"6259a891582d1b81b094d7e2","session_id":"6260b95075442bb6f3c65ed6","version":1},{"rt":146920,"response":{"P0_Q0":null,"multiQuestion":"sincere","Explanation":"Jack was unaware that he made a mistake."},"accuracy":[],"embed_level":"a","question_id":"3a","trial_type":"survey","trial_index":3,"time_elapsed":757889,"internal_node_id":"0.0-1.0-0.2-0.2","subject_id":"5e13a1381e2e589db94cd20b","study_id":"6259a891582d1b81b094d7e2","session_id":"6260b95075442bb6f3c65ed6","version":1},{"rt":130255,"response":{"P0_Q0":null,"multiQuestion":"sarcastic","Explanation":"Possibly sarcastic because most of her friends think the dog is \"very cute\"."},"accuracy":[],"embed_level":"b","question_id":"4b","trial_type":"survey","trial_index":4,"time_elapsed":888156,"internal_node_id":"0.0-1.0-0.3-0.3","subject_id":"5e13a1381e2e589db94cd20b","study_id":"6259a891582d1b81b094d7e2","session_id":"6260b95075442bb6f3c65ed6","version":1},{"rt":188440,"response":{"P0_Q0":null,"multiQuestion":"sincere","Explanation":"Eric was unaware of Philip's argument with the clothing brand boss"},"accuracy":[],"embed_level":"c","question_id":"5c","trial_type":"survey","trial_index":5,"time_elapsed":1076607,"internal_node_id":"0.0-1.0-0.4-0.4","subject_id":"5e13a1381e2e589db94cd20b","study_id":"6259a891582d1b81b094d7e2","session_id":"6260b95075442bb6f3c65ed6","version":1},{"rt":123896,"response":{"P0_Q0":null,"multiQuestion":"sincere","Explanation":"\" Jeremy genuinely enjoys spending time with Spencer and thinks that he is a good person\""},"accuracy":[],"embed_level":"a","question_id":"6a","trial_type":"survey","trial_index":6,"time_elapsed":1200517,"internal_node_id":"0.0-1.0-0.5-0.5","subject_id":"5e13a1381e2e589db94cd20b","study_id":"6259a891582d1b81b094d7e2","session_id":"6260b95075442bb6f3c65ed6","version":1},{"rt":164682,"response":{"P0_Q0":null,"multiQuestion":"sincere","Explanation":"\"Ana still genuinely thinks that James is a good person\""},"accuracy":[],"embed_level":"a","question_id":"7a","trial_type":"survey","trial_index":7,"time_elapsed":1365208,"internal_node_id":"0.0-1.0-0.6-0.6","subject_id":"5e13a1381e2e589db94cd20b","study_id":"6259a891582d1b81b094d7e2","session_id":"6260b95075442bb6f3c65ed6","version":1},{"rt":180186,"response":{"P0_Q0":null,"multiQuestion":"sincere","Explanation":"Simple answer to a simple question."},"accuracy":[],"embed_level":"b","question_id":"8b","trial_type":"survey","trial_index":8,"time_elapsed":1545408,"internal_node_id":"0.0-1.0-0.7-0.7","subject_id":"5e13a1381e2e589db94cd20b","study_id":"6259a891582d1b81b094d7e2","session_id":"6260b95075442bb6f3c65ed6","version":1}]