[{"rt":22276,"stimulus":"<p>In this experiment, you will be presented with 8 scenarios, which you must read carefully.</p><p>After reading each scenario, you will be prompted two comprehension questions: a multiple choice question and a brief open answer question. You will be required to answer both questions for every scenario, meaning 16 questions in total.</p><p>To begin the experiment, hit the space bar.</p>","response":" ","trial_type":"html-keyboard-response","trial_index":0,"time_elapsed":22279,"internal_node_id":"0.0-0.0","subject_id":"5abc11e6e1099600016a3097","study_id":"6259a891582d1b81b094d7e2","session_id":"6260b94b63b5de72847a5f8e","version":1},{"rt":154988,"response":{"P0_Q0":null,"multiQuestion":"sincere","Explanation":"They are lifelong friends so I think they would always say they like something the other has done even if they don't. "},"accuracy":[],"embed_level":"b","question_id":"1b","trial_type":"survey","trial_index":1,"time_elapsed":177352,"internal_node_id":"0.0-1.0-0.0-0.0","subject_id":"5abc11e6e1099600016a3097","study_id":"6259a891582d1b81b094d7e2","session_id":"6260b94b63b5de72847a5f8e","version":1},{"rt":239843,"response":{"P0_Q0":null,"multiQuestion":"sarcastic","Explanation":"Cow's weight a lot, she was just saying that she feels very strong and ready to train. "},"accuracy":[],"embed_level":"c","question_id":"2c","trial_type":"survey","trial_index":2,"time_elapsed":417219,"internal_node_id":"0.0-1.0-0.1-0.1","subject_id":"5abc11e6e1099600016a3097","study_id":"6259a891582d1b81b094d7e2","session_id":"6260b94b63b5de72847a5f8e","version":1},{"rt":156353,"response":{"P0_Q0":null,"multiQuestion":"sarcastic","Explanation":"She's likely saying hinting that the cake should be sweeter. "},"accuracy":[],"embed_level":"a","question_id":"3a","trial_type":"survey","trial_index":3,"time_elapsed":573607,"internal_node_id":"0.0-1.0-0.2-0.2","subject_id":"5abc11e6e1099600016a3097","study_id":"6259a891582d1b81b094d7e2","session_id":"6260b94b63b5de72847a5f8e","version":1},{"rt":146110,"response":{"P0_Q0":null,"multiQuestion":"sincere","Explanation":"Margaret isn't a dog person and for sure not a bulldog person so I think Julia would have heard in Margaret's voice that she was being serious. "},"accuracy":[],"embed_level":"b","question_id":"4b","trial_type":"survey","trial_index":4,"time_elapsed":719750,"internal_node_id":"0.0-1.0-0.3-0.3","subject_id":"5abc11e6e1099600016a3097","study_id":"6259a891582d1b81b094d7e2","session_id":"6260b94b63b5de72847a5f8e","version":1},{"rt":158106,"response":{"P0_Q0":null,"multiQuestion":"sincere","Explanation":"Eric didn't know that Phillip has an issue with the brand that the jacket was. "},"accuracy":[],"embed_level":"c","question_id":"5c","trial_type":"survey","trial_index":5,"time_elapsed":877890,"internal_node_id":"0.0-1.0-0.4-0.4","subject_id":"5abc11e6e1099600016a3097","study_id":"6259a891582d1b81b094d7e2","session_id":"6260b94b63b5de72847a5f8e","version":1},{"rt":121044,"response":{"P0_Q0":null,"multiQuestion":"sincere","Explanation":"They are bothers so I think David would understand that sometimes siblings fall out but they are family. "},"accuracy":[],"embed_level":"a","question_id":"6a","trial_type":"survey","trial_index":6,"time_elapsed":998967,"internal_node_id":"0.0-1.0-0.5-0.5","subject_id":"5abc11e6e1099600016a3097","study_id":"6259a891582d1b81b094d7e2","session_id":"6260b94b63b5de72847a5f8e","version":1},{"rt":132629,"response":{"P0_Q0":null,"multiQuestion":"sincere","Explanation":"They still talk fairly regularly so they must still like each others company but work better as friends.  "},"accuracy":[],"embed_level":"a","question_id":"7a","trial_type":"survey","trial_index":7,"time_elapsed":1131627,"internal_node_id":"0.0-1.0-0.6-0.6","subject_id":"5abc11e6e1099600016a3097","study_id":"6259a891582d1b81b094d7e2","session_id":"6260b94b63b5de72847a5f8e","version":1},{"rt":127095,"response":{"P0_Q0":null,"multiQuestion":"sincere","Explanation":"Elizabeth wasn't on the trip so she more that likely wouldn't have thought anything different. "},"accuracy":[],"embed_level":"b","question_id":"8b","trial_type":"survey","trial_index":8,"time_elapsed":1258756,"internal_node_id":"0.0-1.0-0.7-0.7","subject_id":"5abc11e6e1099600016a3097","study_id":"6259a891582d1b81b094d7e2","session_id":"6260b94b63b5de72847a5f8e","version":1}]