[{"rt":9826,"stimulus":"<p>In this experiment, you will be presented with 8 scenarios, which you must read carefully.</p><p>After reading each scenario, you will be prompted two comprehension questions: a multiple choice question and a brief open answer question. You will be required to answer both questions for every scenario, meaning 16 questions in total.</p><p>To begin the experiment, hit the space bar.</p>","response":" ","trial_type":"html-keyboard-response","trial_index":0,"time_elapsed":9831,"internal_node_id":"0.0-0.0","subject_id":"5c93e9a464d5c100151ea3d6","study_id":"6259a891582d1b81b094d7e2","session_id":"62606d107253e4740ac4d36f","version":2},{"rt":85439,"response":{"P0_Q0":null,"multiQuestion":"sincere","Explanation":"More of a friendly response and that particular phrase is not often used for sarcasm, especially over message"},"accuracy":[],"embed_level":"a","question_id":"1a","trial_type":"survey","trial_index":1,"time_elapsed":95431,"internal_node_id":"0.0-1.0-0.0-0.0","subject_id":"5c93e9a464d5c100151ea3d6","study_id":"6259a891582d1b81b094d7e2","session_id":"62606d107253e4740ac4d36f","version":2},{"rt":89009,"response":{"P0_Q0":null,"multiQuestion":"sincere","Explanation":"Jane knows Catherine is excited and knows how much this means to her "},"accuracy":[],"embed_level":"b","question_id":"2b","trial_type":"survey","trial_index":2,"time_elapsed":184484,"internal_node_id":"0.0-1.0-0.1-0.1","subject_id":"5c93e9a464d5c100151ea3d6","study_id":"6259a891582d1b81b094d7e2","session_id":"62606d107253e4740ac4d36f","version":2},{"rt":79068,"response":{"P0_Q0":null,"multiQuestion":"sincere","Explanation":"I don't think she was intendning to hurt his feelings, I think she was just being kind"},"accuracy":[],"embed_level":"b","question_id":"3b","trial_type":"survey","trial_index":3,"time_elapsed":263601,"internal_node_id":"0.0-1.0-0.2-0.2","subject_id":"5c93e9a464d5c100151ea3d6","study_id":"6259a891582d1b81b094d7e2","session_id":"62606d107253e4740ac4d36f","version":2},{"rt":48155,"response":{"P0_Q0":null,"multiQuestion":"sincere","Explanation":"She is genuinely scared of dogs "},"accuracy":[],"embed_level":"c","question_id":"4c","trial_type":"survey","trial_index":4,"time_elapsed":311800,"internal_node_id":"0.0-1.0-0.3-0.3","subject_id":"5c93e9a464d5c100151ea3d6","study_id":"6259a891582d1b81b094d7e2","session_id":"62606d107253e4740ac4d36f","version":2},{"rt":93674,"response":{"P0_Q0":null,"multiQuestion":"sincere","Explanation":"Due to his demeanour during the interview - polite and friendly "},"accuracy":[],"embed_level":"a","question_id":"5a","trial_type":"survey","trial_index":5,"time_elapsed":405515,"internal_node_id":"0.0-1.0-0.4-0.4","subject_id":"5c93e9a464d5c100151ea3d6","study_id":"6259a891582d1b81b094d7e2","session_id":"62606d107253e4740ac4d36f","version":2},{"rt":45652,"response":{"P0_Q0":null,"multiQuestion":"sarcastic","Explanation":"due to witnessing the heated argument"},"accuracy":[],"embed_level":"b","question_id":"6b","trial_type":"survey","trial_index":6,"time_elapsed":451214,"internal_node_id":"0.0-1.0-0.5-0.5","subject_id":"5c93e9a464d5c100151ea3d6","study_id":"6259a891582d1b81b094d7e2","session_id":"62606d107253e4740ac4d36f","version":2},{"rt":78213,"response":{"P0_Q0":null,"multiQuestion":"sincere","Explanation":"They are good friends so I believe she would be honest enough if she wanted to respond negatively "},"accuracy":[],"embed_level":"c","question_id":"7c","trial_type":"survey","trial_index":7,"time_elapsed":529467,"internal_node_id":"0.0-1.0-0.6-0.6","subject_id":"5c93e9a464d5c100151ea3d6","study_id":"6259a891582d1b81b094d7e2","session_id":"62606d107253e4740ac4d36f","version":2},{"rt":64250,"response":{"P0_Q0":null,"multiQuestion":"sincere","Explanation":"She didn't know the full information to know whether she was being sarcastic or not "},"accuracy":[],"embed_level":"c","question_id":"8c","trial_type":"survey","trial_index":8,"time_elapsed":593758,"internal_node_id":"0.0-1.0-0.7-0.7","subject_id":"5c93e9a464d5c100151ea3d6","study_id":"6259a891582d1b81b094d7e2","session_id":"62606d107253e4740ac4d36f","version":2}]