[{"rt":19934,"stimulus":"<p>In this experiment, you will be presented with 8 scenarios, which you must read carefully.</p><p>After reading each scenario, you will be prompted two comprehension questions: a multiple choice question and a brief open answer question. You will be required to answer both questions for every scenario, meaning 16 questions in total.</p><p>To begin the experiment, hit the space bar.</p>","response":" ","trial_type":"html-keyboard-response","trial_index":0,"time_elapsed":19936,"internal_node_id":"0.0-0.0","subject_id":"5fcca7bf6a7182b003b32a36","study_id":"6259a891582d1b81b094d7e2","session_id":"6260b953069be27a7afc1abe","version":1},{"rt":74705,"response":{"P0_Q0":null,"multiQuestion":"sincere","Explanation":"I think Alice does not want to upset her friend"},"accuracy":[],"embed_level":"b","question_id":"1b","trial_type":"survey","trial_index":1,"time_elapsed":94708,"internal_node_id":"0.0-1.0-0.0-0.0","subject_id":"5fcca7bf6a7182b003b32a36","study_id":"6259a891582d1b81b094d7e2","session_id":"6260b953069be27a7afc1abe","version":1},{"rt":105264,"response":{"P0_Q0":null,"multiQuestion":"sincere","Explanation":"I think Jane would feel that Catherine is telling her that her back is fine and there is no need to worry."},"accuracy":[],"embed_level":"c","question_id":"2c","trial_type":"survey","trial_index":2,"time_elapsed":199993,"internal_node_id":"0.0-1.0-0.1-0.1","subject_id":"5fcca7bf6a7182b003b32a36","study_id":"6259a891582d1b81b094d7e2","session_id":"6260b953069be27a7afc1abe","version":1},{"rt":71705,"response":{"P0_Q0":null,"multiQuestion":"sincere","Explanation":"Jack would know that Anastasia does not want to hurt his feelings"},"accuracy":[],"embed_level":"a","question_id":"3a","trial_type":"survey","trial_index":3,"time_elapsed":271736,"internal_node_id":"0.0-1.0-0.2-0.2","subject_id":"5fcca7bf6a7182b003b32a36","study_id":"6259a891582d1b81b094d7e2","session_id":"6260b953069be27a7afc1abe","version":1},{"rt":69472,"response":{"P0_Q0":null,"multiQuestion":"sincere","Explanation":"Margaret is being honest and wants to ensure that Julia is aware she is frightened"},"accuracy":[],"embed_level":"b","question_id":"4b","trial_type":"survey","trial_index":4,"time_elapsed":341230,"internal_node_id":"0.0-1.0-0.3-0.3","subject_id":"5fcca7bf6a7182b003b32a36","study_id":"6259a891582d1b81b094d7e2","session_id":"6260b953069be27a7afc1abe","version":1},{"rt":94803,"response":{"P0_Q0":null,"multiQuestion":"sarcastic","Explanation":"There was no need to mention the jacket so to make a comment about it seems like it was done deliberately to be sarcastic"},"accuracy":[],"embed_level":"c","question_id":"5c","trial_type":"survey","trial_index":5,"time_elapsed":436053,"internal_node_id":"0.0-1.0-0.4-0.4","subject_id":"5fcca7bf6a7182b003b32a36","study_id":"6259a891582d1b81b094d7e2","session_id":"6260b953069be27a7afc1abe","version":1},{"rt":137889,"response":{"P0_Q0":null,"multiQuestion":"sincere","Explanation":"I think Jeremy really does like Spencer despite them fighting, but this is quite common amongst siblings."},"accuracy":[],"embed_level":"a","question_id":"6a","trial_type":"survey","trial_index":6,"time_elapsed":573965,"internal_node_id":"0.0-1.0-0.5-0.5","subject_id":"5fcca7bf6a7182b003b32a36","study_id":"6259a891582d1b81b094d7e2","session_id":"6260b953069be27a7afc1abe","version":1},{"rt":83793,"response":{"P0_Q0":null,"multiQuestion":"sincere","Explanation":"I can't see any reason why Ken would want to make a sarcastic comment."},"accuracy":[],"embed_level":"a","question_id":"7a","trial_type":"survey","trial_index":7,"time_elapsed":657779,"internal_node_id":"0.0-1.0-0.6-0.6","subject_id":"5fcca7bf6a7182b003b32a36","study_id":"6259a891582d1b81b094d7e2","session_id":"6260b953069be27a7afc1abe","version":1},{"rt":100312,"response":{"P0_Q0":null,"multiQuestion":"sincere","Explanation":"I think May was being genuine because nice things did happen to her on the trip"},"accuracy":[],"embed_level":"b","question_id":"8b","trial_type":"survey","trial_index":8,"time_elapsed":758111,"internal_node_id":"0.0-1.0-0.7-0.7","subject_id":"5fcca7bf6a7182b003b32a36","study_id":"6259a891582d1b81b094d7e2","session_id":"6260b953069be27a7afc1abe","version":1}]