[{"rt":8241,"stimulus":"<p>In this experiment, you will be presented with 8 scenarios, which you must read carefully.</p><p>After reading each scenario, you will be prompted two comprehension questions: a multiple choice question and a brief open answer question. You will be required to answer both questions for every scenario, meaning 16 questions in total.</p><p>To begin the experiment, hit the space bar.</p>","response":" ","trial_type":"html-keyboard-response","trial_index":0,"time_elapsed":8243,"internal_node_id":"0.0-0.0","subject_id":"60fd232b16f54fc7308136f2","study_id":"6259a891582d1b81b094d7e2","session_id":"62606c87fa095ee6eb3efc6e","version":1},{"rt":61058,"response":{"P0_Q0":null,"multiQuestion":"sincere","Explanation":"Even though she is annoyed its her best friend so she would probably still be being sincere even though shes not happy as to not upset her friend "},"accuracy":[],"embed_level":"b","question_id":"1b","trial_type":"survey","trial_index":1,"time_elapsed":69343,"internal_node_id":"0.0-1.0-0.0-0.0","subject_id":"60fd232b16f54fc7308136f2","study_id":"6259a891582d1b81b094d7e2","session_id":"62606c87fa095ee6eb3efc6e","version":1},{"rt":68463,"response":{"P0_Q0":null,"multiQuestion":"sincere","Explanation":"Theres nothing here that could be sarcastic "},"accuracy":[],"embed_level":"c","question_id":"2c","trial_type":"survey","trial_index":2,"time_elapsed":137813,"internal_node_id":"0.0-1.0-0.1-0.1","subject_id":"60fd232b16f54fc7308136f2","study_id":"6259a891582d1b81b094d7e2","session_id":"62606c87fa095ee6eb3efc6e","version":1},{"rt":51058,"response":{"P0_Q0":null,"multiQuestion":"sincere","Explanation":"Even though the cake wasn't good she doesn't want to hurt his feelings so is being sincere but lying "},"accuracy":[],"embed_level":"a","question_id":"3a","trial_type":"survey","trial_index":3,"time_elapsed":188885,"internal_node_id":"0.0-1.0-0.2-0.2","subject_id":"60fd232b16f54fc7308136f2","study_id":"6259a891582d1b81b094d7e2","session_id":"62606c87fa095ee6eb3efc6e","version":1},{"rt":38147,"response":{"P0_Q0":null,"multiQuestion":"sincere","Explanation":"she's scared of dogs so is being truthful"},"accuracy":[],"embed_level":"b","question_id":"4b","trial_type":"survey","trial_index":4,"time_elapsed":227052,"internal_node_id":"0.0-1.0-0.3-0.3","subject_id":"60fd232b16f54fc7308136f2","study_id":"6259a891582d1b81b094d7e2","session_id":"62606c87fa095ee6eb3efc6e","version":1},{"rt":89377,"response":{"P0_Q0":null,"multiQuestion":"sincere","Explanation":"He wouldn't know that Phillip didn't like his jacket so would think he was being sincere "},"accuracy":[],"embed_level":"c","question_id":"5c","trial_type":"survey","trial_index":5,"time_elapsed":316448,"internal_node_id":"0.0-1.0-0.4-0.4","subject_id":"60fd232b16f54fc7308136f2","study_id":"6259a891582d1b81b094d7e2","session_id":"62606c87fa095ee6eb3efc6e","version":1},{"rt":71191,"response":{"P0_Q0":null,"multiQuestion":"sincere","Explanation":"The brothers have a good relationship otherwise so would probably think he was being sincere"},"accuracy":[],"embed_level":"a","question_id":"6a","trial_type":"survey","trial_index":6,"time_elapsed":387661,"internal_node_id":"0.0-1.0-0.5-0.5","subject_id":"60fd232b16f54fc7308136f2","study_id":"6259a891582d1b81b094d7e2","session_id":"62606c87fa095ee6eb3efc6e","version":1},{"rt":65533,"response":{"P0_Q0":null,"multiQuestion":"sincere","Explanation":"Just because their relationship ended in a fight does not mean either one is a bad person and I think ken would know that and think she was being sincere"},"accuracy":[],"embed_level":"a","question_id":"7a","trial_type":"survey","trial_index":7,"time_elapsed":453209,"internal_node_id":"0.0-1.0-0.6-0.6","subject_id":"60fd232b16f54fc7308136f2","study_id":"6259a891582d1b81b094d7e2","session_id":"62606c87fa095ee6eb3efc6e","version":1},{"rt":51158,"response":{"P0_Q0":null,"multiQuestion":"sincere","Explanation":"There's nothing there to suggest she was being sarcastic"},"accuracy":[],"embed_level":"b","question_id":"8b","trial_type":"survey","trial_index":8,"time_elapsed":504381,"internal_node_id":"0.0-1.0-0.7-0.7","subject_id":"60fd232b16f54fc7308136f2","study_id":"6259a891582d1b81b094d7e2","session_id":"62606c87fa095ee6eb3efc6e","version":1}]