[{"rt":9730,"stimulus":"<p>In this experiment, you will be presented with 8 scenarios, which you must read carefully.</p><p>After reading each scenario, you will be prompted two comprehension questions: a multiple choice question and a brief open answer question. You will be required to answer both questions for every scenario, meaning 16 questions in total.</p><p>To begin the experiment, hit the space bar.</p>","response":" ","trial_type":"html-keyboard-response","trial_index":0,"time_elapsed":9735,"internal_node_id":"0.0-0.0","subject_id":"578b467beeaf6d00018d4a60","study_id":"6259a891582d1b81b094d7e2","session_id":"6260b8f65004a38acd5bd56a","version":0},{"rt":83512,"response":{"P0_Q0":null,"multiQuestion":"sincere","Explanation":"because theyre close friends and olivia would trust alices reaction"},"accuracy":[],"embed_level":"c","question_id":"1c","trial_type":"survey","trial_index":1,"time_elapsed":93320,"internal_node_id":"0.0-1.0-0.0-0.0","subject_id":"578b467beeaf6d00018d4a60","study_id":"6259a891582d1b81b094d7e2","session_id":"6260b8f65004a38acd5bd56a","version":0},{"rt":88498,"response":{"P0_Q0":null,"multiQuestion":"sincere","Explanation":"jane would trust the message as showing catherines capability"},"accuracy":[],"embed_level":"a","question_id":"2a","trial_type":"survey","trial_index":2,"time_elapsed":181836,"internal_node_id":"0.0-1.0-0.1-0.1","subject_id":"578b467beeaf6d00018d4a60","study_id":"6259a891582d1b81b094d7e2","session_id":"6260b8f65004a38acd5bd56a","version":0},{"rt":92453,"response":{"P0_Q0":null,"multiQuestion":"sincere","Explanation":"as theyre friends jack would take the comment as a compliment and in a positive light"},"accuracy":[],"embed_level":"c","question_id":"3c","trial_type":"survey","trial_index":3,"time_elapsed":274316,"internal_node_id":"0.0-1.0-0.2-0.2","subject_id":"578b467beeaf6d00018d4a60","study_id":"6259a891582d1b81b094d7e2","session_id":"6260b8f65004a38acd5bd56a","version":0},{"rt":49014,"response":{"P0_Q0":null,"multiQuestion":"sarcastic","Explanation":"i think julia would take it as being humourous and sarcastic and not sincere"},"accuracy":[],"embed_level":"a","question_id":"4a","trial_type":"survey","trial_index":4,"time_elapsed":323351,"internal_node_id":"0.0-1.0-0.3-0.3","subject_id":"578b467beeaf6d00018d4a60","study_id":"6259a891582d1b81b094d7e2","session_id":"6260b8f65004a38acd5bd56a","version":0},{"rt":70825,"response":{"P0_Q0":null,"multiQuestion":"sincere","Explanation":"he would trust his comment as he work for a fashion magazine"},"accuracy":[],"embed_level":"b","question_id":"5b","trial_type":"survey","trial_index":5,"time_elapsed":394197,"internal_node_id":"0.0-1.0-0.4-0.4","subject_id":"578b467beeaf6d00018d4a60","study_id":"6259a891582d1b81b094d7e2","session_id":"6260b8f65004a38acd5bd56a","version":0},{"rt":62334,"response":{"P0_Q0":null,"multiQuestion":"sarcastic","Explanation":"because he saw the argument he wouldnt believe the message in the letter"},"accuracy":[],"embed_level":"c","question_id":"6c","trial_type":"survey","trial_index":6,"time_elapsed":456556,"internal_node_id":"0.0-1.0-0.5-0.5","subject_id":"578b467beeaf6d00018d4a60","study_id":"6259a891582d1b81b094d7e2","session_id":"6260b8f65004a38acd5bd56a","version":0},{"rt":63564,"response":{"P0_Q0":null,"multiQuestion":"sarcastic","Explanation":"she would think she's being sarcastic as she knows they broke up but doesnt know that they still talk etc"},"accuracy":[],"embed_level":"b","question_id":"7b","trial_type":"survey","trial_index":7,"time_elapsed":520142,"internal_node_id":"0.0-1.0-0.6-0.6","subject_id":"578b467beeaf6d00018d4a60","study_id":"6259a891582d1b81b094d7e2","session_id":"6260b8f65004a38acd5bd56a","version":0},{"rt":51800,"response":{"P0_Q0":null,"multiQuestion":"sincere","Explanation":"she would think its a genuine response"},"accuracy":[],"embed_level":"a","question_id":"8a","trial_type":"survey","trial_index":8,"time_elapsed":571967,"internal_node_id":"0.0-1.0-0.7-0.7","subject_id":"578b467beeaf6d00018d4a60","study_id":"6259a891582d1b81b094d7e2","session_id":"6260b8f65004a38acd5bd56a","version":0}]