[{"rt":7837,"stimulus":"<p>In this experiment, you will be presented with 8 scenarios, which you must read carefully.</p><p>After reading each scenario, you will be prompted two comprehension questions: a multiple choice question and a brief open answer question. You will be required to answer both questions for every scenario, meaning 16 questions in total.</p><p>To begin the experiment, hit the space bar.</p>","response":" ","trial_type":"html-keyboard-response","trial_index":0,"time_elapsed":7842,"internal_node_id":"0.0-0.0","subject_id":"5ee25eaee623063409d1e4a7","study_id":"6259a891582d1b81b094d7e2","session_id":"62606cea5912c3ef93fb092d","version":0},{"rt":60225,"response":{"P0_Q0":null,"multiQuestion":"sincere","Explanation":"Unless this was previously spoken about, I would see no reason why Olivia would not take Alice sincerely"},"accuracy":[],"embed_level":"c","question_id":"1c","trial_type":"survey","trial_index":1,"time_elapsed":68186,"internal_node_id":"0.0-1.0-0.0-0.0","subject_id":"5ee25eaee623063409d1e4a7","study_id":"6259a891582d1b81b094d7e2","session_id":"62606cea5912c3ef93fb092d","version":0},{"rt":52083,"response":{"P0_Q0":null,"multiQuestion":"sincere","Explanation":"It would be amiss to use sarcasm in that way since Catherine could choose to not go to the gym"},"accuracy":[],"embed_level":"a","question_id":"2a","trial_type":"survey","trial_index":2,"time_elapsed":120308,"internal_node_id":"0.0-1.0-0.1-0.1","subject_id":"5ee25eaee623063409d1e4a7","study_id":"6259a891582d1b81b094d7e2","session_id":"62606cea5912c3ef93fb092d","version":0},{"rt":50674,"response":{"P0_Q0":null,"multiQuestion":"sincere","Explanation":"The message is indistinguishable from one written after a cake that was well received"},"accuracy":[],"embed_level":"c","question_id":"3c","trial_type":"survey","trial_index":3,"time_elapsed":171007,"internal_node_id":"0.0-1.0-0.2-0.2","subject_id":"5ee25eaee623063409d1e4a7","study_id":"6259a891582d1b81b094d7e2","session_id":"62606cea5912c3ef93fb092d","version":0},{"rt":28458,"response":{"P0_Q0":null,"multiQuestion":"sincere","Explanation":"It is common knowledge that many people are afraid of dogs"},"accuracy":[],"embed_level":"a","question_id":"4a","trial_type":"survey","trial_index":4,"time_elapsed":199495,"internal_node_id":"0.0-1.0-0.3-0.3","subject_id":"5ee25eaee623063409d1e4a7","study_id":"6259a891582d1b81b094d7e2","session_id":"62606cea5912c3ef93fb092d","version":0},{"rt":58603,"response":{"P0_Q0":null,"multiQuestion":"sincere","Explanation":"Eric may think that his bold choice paid off, and remarks such as those are only taken sarcastically when there is some other reason to suppose so"},"accuracy":[],"embed_level":"b","question_id":"5b","trial_type":"survey","trial_index":5,"time_elapsed":258116,"internal_node_id":"0.0-1.0-0.4-0.4","subject_id":"5ee25eaee623063409d1e4a7","study_id":"6259a891582d1b81b094d7e2","session_id":"62606cea5912c3ef93fb092d","version":0},{"rt":89799,"response":{"P0_Q0":null,"multiQuestion":"sarcastic","Explanation":"David would recognise that while it is common for brothers to get into fights, serious fights are something else, as well as the very strong statement 'best brother ever' standing in contrast to what David has seen"},"accuracy":[],"embed_level":"c","question_id":"6c","trial_type":"survey","trial_index":6,"time_elapsed":347943,"internal_node_id":"0.0-1.0-0.5-0.5","subject_id":"5ee25eaee623063409d1e4a7","study_id":"6259a891582d1b81b094d7e2","session_id":"62606cea5912c3ef93fb092d","version":0},{"rt":94185,"response":{"P0_Q0":null,"multiQuestion":"sincere","Explanation":"It is not unusual for exes to think fondly of each other after fights"},"accuracy":[],"embed_level":"b","question_id":"7b","trial_type":"survey","trial_index":7,"time_elapsed":442148,"internal_node_id":"0.0-1.0-0.6-0.6","subject_id":"5ee25eaee623063409d1e4a7","study_id":"6259a891582d1b81b094d7e2","session_id":"62606cea5912c3ef93fb092d","version":0},{"rt":43821,"response":{"P0_Q0":null,"multiQuestion":"sincere","Explanation":"No reason for Elizabeth to suppose otherwise, without knowledge of any of May's underlying problems"},"accuracy":[],"embed_level":"a","question_id":"8a","trial_type":"survey","trial_index":8,"time_elapsed":485998,"internal_node_id":"0.0-1.0-0.7-0.7","subject_id":"5ee25eaee623063409d1e4a7","study_id":"6259a891582d1b81b094d7e2","session_id":"62606cea5912c3ef93fb092d","version":0}]