[{"rt":16999,"stimulus":"<p>In this experiment, you will be presented with 8 scenarios, which you must read carefully.</p><p>After reading each scenario, you will be prompted two comprehension questions: a multiple choice question and a brief open answer question. You will be required to answer both questions for every scenario, meaning 16 questions in total.</p><p>To begin the experiment, hit the space bar.</p>","response":" ","trial_type":"html-keyboard-response","trial_index":0,"time_elapsed":17004,"internal_node_id":"0.0-0.0","subject_id":"602d3091f732e96dbb83fb94","study_id":"6259a891582d1b81b094d7e2","session_id":"62606cdb6cc935e2a9ccfa9f","version":2},{"rt":154197,"response":{"P0_Q0":null,"multiQuestion":"sarcastic","Explanation":"She doesn't like it so she can't be sincere."},"accuracy":[],"embed_level":"a","question_id":"1a","trial_type":"survey","trial_index":1,"time_elapsed":171307,"internal_node_id":"0.0-1.0-0.0-0.0","subject_id":"602d3091f732e96dbb83fb94","study_id":"6259a891582d1b81b094d7e2","session_id":"62606cdb6cc935e2a9ccfa9f","version":2},{"rt":165046,"response":{"P0_Q0":null,"multiQuestion":"sincere","Explanation":"Seems to she start to feel better after gym."},"accuracy":[],"embed_level":"b","question_id":"2b","trial_type":"survey","trial_index":2,"time_elapsed":336392,"internal_node_id":"0.0-1.0-0.1-0.1","subject_id":"602d3091f732e96dbb83fb94","study_id":"6259a891582d1b81b094d7e2","session_id":"62606cdb6cc935e2a9ccfa9f","version":2},{"rt":110381,"response":{"P0_Q0":null,"multiQuestion":"sarcastic","Explanation":"Cake was salty she refer to sweet as sarcasm"},"accuracy":[],"embed_level":"b","question_id":"3b","trial_type":"survey","trial_index":3,"time_elapsed":446796,"internal_node_id":"0.0-1.0-0.2-0.2","subject_id":"602d3091f732e96dbb83fb94","study_id":"6259a891582d1b81b094d7e2","session_id":"62606cdb6cc935e2a9ccfa9f","version":2},{"rt":128679,"response":{"P0_Q0":null,"multiQuestion":"sincere","Explanation":"Her bad experience with bulldog from childhood makes it sincere."},"accuracy":[],"embed_level":"c","question_id":"4c","trial_type":"survey","trial_index":4,"time_elapsed":575498,"internal_node_id":"0.0-1.0-0.3-0.3","subject_id":"602d3091f732e96dbb83fb94","study_id":"6259a891582d1b81b094d7e2","session_id":"62606cdb6cc935e2a9ccfa9f","version":2},{"rt":103425,"response":{"P0_Q0":null,"multiQuestion":"sarcastic","Explanation":"He hasn't like his jacket so can't be sincere."},"accuracy":[],"embed_level":"a","question_id":"5a","trial_type":"survey","trial_index":5,"time_elapsed":678951,"internal_node_id":"0.0-1.0-0.4-0.4","subject_id":"602d3091f732e96dbb83fb94","study_id":"6259a891582d1b81b094d7e2","session_id":"62606cdb6cc935e2a9ccfa9f","version":2},{"rt":100948,"response":{"P0_Q0":null,"multiQuestion":"sincere","Explanation":"They are brothers and they enjoy to spend time together."},"accuracy":[],"embed_level":"b","question_id":"6b","trial_type":"survey","trial_index":6,"time_elapsed":779920,"internal_node_id":"0.0-1.0-0.5-0.5","subject_id":"602d3091f732e96dbb83fb94","study_id":"6259a891582d1b81b094d7e2","session_id":"62606cdb6cc935e2a9ccfa9f","version":2},{"rt":250158,"response":{"P0_Q0":null,"multiQuestion":"sincere","Explanation":"She likes James as a friend so she responded in sincere way so Ken must interpret it right."},"accuracy":[],"embed_level":"c","question_id":"7c","trial_type":"survey","trial_index":7,"time_elapsed":1030102,"internal_node_id":"0.0-1.0-0.6-0.6","subject_id":"602d3091f732e96dbb83fb94","study_id":"6259a891582d1b81b094d7e2","session_id":"62606cdb6cc935e2a9ccfa9f","version":2},{"rt":155275,"response":{"P0_Q0":null,"multiQuestion":"sincere","Explanation":"The trip was nice so it was a sincere text even if she expected more."},"accuracy":[],"embed_level":"c","question_id":"8c","trial_type":"survey","trial_index":8,"time_elapsed":1185398,"internal_node_id":"0.0-1.0-0.7-0.7","subject_id":"602d3091f732e96dbb83fb94","study_id":"6259a891582d1b81b094d7e2","session_id":"62606cdb6cc935e2a9ccfa9f","version":2}]