[{"rt":15183,"stimulus":"<p>In this experiment, you will be presented with 8 scenarios, which you must read carefully.</p><p>After reading each scenario, you will be prompted two comprehension questions: a multiple choice question and a brief open answer question. You will be required to answer both questions for every scenario, meaning 16 questions in total.</p><p>To begin the experiment, hit the space bar.</p>","response":" ","trial_type":"html-keyboard-response","trial_index":0,"time_elapsed":15186,"internal_node_id":"0.0-0.0","subject_id":"5c6de2ba2bdd040001d6b293","study_id":"6259a891582d1b81b094d7e2","session_id":"62606ce2d54807a0540a9bf1","version":2},{"rt":49747,"response":{"P0_Q0":null,"multiQuestion":"sincere","Explanation":"they are friends so olivia would expect her friend to tell her the truth"},"accuracy":[],"embed_level":"a","question_id":"1a","trial_type":"survey","trial_index":1,"time_elapsed":64980,"internal_node_id":"0.0-1.0-0.0-0.0","subject_id":"5c6de2ba2bdd040001d6b293","study_id":"6259a891582d1b81b094d7e2","session_id":"62606ce2d54807a0540a9bf1","version":2},{"rt":90787,"response":{"P0_Q0":null,"multiQuestion":"sincere","Explanation":"her message depicts the reality and shows that catherine is just really excited"},"accuracy":[],"embed_level":"b","question_id":"2b","trial_type":"survey","trial_index":2,"time_elapsed":155778,"internal_node_id":"0.0-1.0-0.1-0.1","subject_id":"5c6de2ba2bdd040001d6b293","study_id":"6259a891582d1b81b094d7e2","session_id":"62606ce2d54807a0540a9bf1","version":2},{"rt":73346,"response":{"P0_Q0":null,"multiQuestion":"sarcastic","Explanation":"the way it's worded gives off a sarcastic vibe, she uses the word sweet to describe jake when he used salt for the cake"},"accuracy":[],"embed_level":"b","question_id":"3b","trial_type":"survey","trial_index":3,"time_elapsed":229141,"internal_node_id":"0.0-1.0-0.2-0.2","subject_id":"5c6de2ba2bdd040001d6b293","study_id":"6259a891582d1b81b094d7e2","session_id":"62606ce2d54807a0540a9bf1","version":2},{"rt":102976,"response":{"P0_Q0":null,"multiQuestion":"sarcastic","Explanation":"Julia might interpret it as sarcastic because she herself and her friends think the dog is really cute . So she wouldnt think somebody can see her dog as scary"},"accuracy":[],"embed_level":"c","question_id":"4c","trial_type":"survey","trial_index":4,"time_elapsed":332134,"internal_node_id":"0.0-1.0-0.3-0.3","subject_id":"5c6de2ba2bdd040001d6b293","study_id":"6259a891582d1b81b094d7e2","session_id":"62606ce2d54807a0540a9bf1","version":2},{"rt":80434,"response":{"P0_Q0":null,"multiQuestion":"sincere","Explanation":"Even though it was a lie, I think eric would have interpret it as sincere because philip is a fashion magizine's manager"},"accuracy":[],"embed_level":"a","question_id":"5a","trial_type":"survey","trial_index":5,"time_elapsed":412583,"internal_node_id":"0.0-1.0-0.4-0.4","subject_id":"5c6de2ba2bdd040001d6b293","study_id":"6259a891582d1b81b094d7e2","session_id":"62606ce2d54807a0540a9bf1","version":2},{"rt":91611,"response":{"P0_Q0":null,"multiQuestion":"sarcastic","Explanation":"David doensn't know the brothers very well and after witnessing their fight, he might think that they dont get along"},"accuracy":[],"embed_level":"b","question_id":"6b","trial_type":"survey","trial_index":6,"time_elapsed":504211,"internal_node_id":"0.0-1.0-0.5-0.5","subject_id":"5c6de2ba2bdd040001d6b293","study_id":"6259a891582d1b81b094d7e2","session_id":"62606ce2d54807a0540a9bf1","version":2},{"rt":54406,"response":{"P0_Q0":null,"multiQuestion":"sarcastic","Explanation":"He might think it is sarcastic given the way their relationship ended and the mere fact that they are exes"},"accuracy":[],"embed_level":"c","question_id":"7c","trial_type":"survey","trial_index":7,"time_elapsed":558631,"internal_node_id":"0.0-1.0-0.6-0.6","subject_id":"5c6de2ba2bdd040001d6b293","study_id":"6259a891582d1b81b094d7e2","session_id":"62606ce2d54807a0540a9bf1","version":2},{"rt":91507,"response":{"P0_Q0":null,"multiQuestion":"sincere","Explanation":"Elizabeth doesnt know May's feelings so she wouldnt suspect that her friend didnt have a good time on her trip"},"accuracy":[],"embed_level":"c","question_id":"8c","trial_type":"survey","trial_index":8,"time_elapsed":650154,"internal_node_id":"0.0-1.0-0.7-0.7","subject_id":"5c6de2ba2bdd040001d6b293","study_id":"6259a891582d1b81b094d7e2","session_id":"62606ce2d54807a0540a9bf1","version":2}]