[{"rt":10497,"stimulus":"<p>In this experiment, you will be presented with 8 scenarios, which you must read carefully.</p><p>After reading each scenario, you will be prompted two comprehension questions: a multiple choice question and a brief open answer question. You will be required to answer both questions for every scenario, meaning 16 questions in total.</p><p>To begin the experiment, hit the space bar.</p>","response":" ","trial_type":"html-keyboard-response","trial_index":0,"time_elapsed":10505,"internal_node_id":"0.0-0.0","subject_id":"5eac3dc896a6242689110c31","study_id":"6259a891582d1b81b094d7e2","session_id":"62606c746f0697c982d846ca","version":2},{"rt":71395,"response":{"P0_Q0":null,"multiQuestion":"sincere","Explanation":"she has been given no reason to believe alice would be being sarcastic, there are no emojis to show sarcasm"},"accuracy":[],"embed_level":"a","question_id":"1a","trial_type":"survey","trial_index":1,"time_elapsed":82063,"internal_node_id":"0.0-1.0-0.0-0.0","subject_id":"5eac3dc896a6242689110c31","study_id":"6259a891582d1b81b094d7e2","session_id":"62606c746f0697c982d846ca","version":2},{"rt":57247,"response":{"P0_Q0":null,"multiQuestion":"sincere","Explanation":"she has used an analogy but there is no sarcasm"},"accuracy":[],"embed_level":"b","question_id":"2b","trial_type":"survey","trial_index":2,"time_elapsed":139359,"internal_node_id":"0.0-1.0-0.1-0.1","subject_id":"5eac3dc896a6242689110c31","study_id":"6259a891582d1b81b094d7e2","session_id":"62606c746f0697c982d846ca","version":2},{"rt":94625,"response":{"P0_Q0":null,"multiQuestion":"sincere","Explanation":"there is no sarcasm in her tone, she is either saying it is perfect because he made it and thats the way he is or to save hurting his feelings"},"accuracy":[],"embed_level":"b","question_id":"3b","trial_type":"survey","trial_index":3,"time_elapsed":234069,"internal_node_id":"0.0-1.0-0.2-0.2","subject_id":"5eac3dc896a6242689110c31","study_id":"6259a891582d1b81b094d7e2","session_id":"62606c746f0697c982d846ca","version":2},{"rt":50028,"response":{"P0_Q0":null,"multiQuestion":"sincere","Explanation":"she has a fear so she means what she is saying "},"accuracy":[],"embed_level":"c","question_id":"4c","trial_type":"survey","trial_index":4,"time_elapsed":284158,"internal_node_id":"0.0-1.0-0.3-0.3","subject_id":"5eac3dc896a6242689110c31","study_id":"6259a891582d1b81b094d7e2","session_id":"62606c746f0697c982d846ca","version":2},{"rt":55232,"response":{"P0_Q0":null,"multiQuestion":"sincere","Explanation":"why would he think otherwise, there was no indication of his dislike when they met "},"accuracy":[],"embed_level":"a","question_id":"5a","trial_type":"survey","trial_index":5,"time_elapsed":339438,"internal_node_id":"0.0-1.0-0.4-0.4","subject_id":"5eac3dc896a6242689110c31","study_id":"6259a891582d1b81b094d7e2","session_id":"62606c746f0697c982d846ca","version":2},{"rt":78773,"response":{"P0_Q0":null,"multiQuestion":"sarcastic","Explanation":"since they do not know each other well he may believe that jeremy hates spencer and thus believe this is sarcasm"},"accuracy":[],"embed_level":"b","question_id":"6b","trial_type":"survey","trial_index":6,"time_elapsed":418264,"internal_node_id":"0.0-1.0-0.5-0.5","subject_id":"5eac3dc896a6242689110c31","study_id":"6259a891582d1b81b094d7e2","session_id":"62606c746f0697c982d846ca","version":2},{"rt":57171,"response":{"P0_Q0":null,"multiQuestion":"sarcastic","Explanation":"most people do not remain frieds after a break up so this could easily be construed as sarcasm"},"accuracy":[],"embed_level":"c","question_id":"7c","trial_type":"survey","trial_index":7,"time_elapsed":475519,"internal_node_id":"0.0-1.0-0.6-0.6","subject_id":"5eac3dc896a6242689110c31","study_id":"6259a891582d1b81b094d7e2","session_id":"62606c746f0697c982d846ca","version":2},{"rt":84749,"response":{"P0_Q0":null,"multiQuestion":"sincere","Explanation":"i she did not know about may's change of heart so this would be the sort of answer she wuld expect following a nice trip "},"accuracy":[],"embed_level":"c","question_id":"8c","trial_type":"survey","trial_index":8,"time_elapsed":560322,"internal_node_id":"0.0-1.0-0.7-0.7","subject_id":"5eac3dc896a6242689110c31","study_id":"6259a891582d1b81b094d7e2","session_id":"62606c746f0697c982d846ca","version":2}]