[{"rt":8095,"stimulus":"<p>In this experiment, you will be presented with 8 scenarios, which you must read carefully.</p><p>After reading each scenario, you will be prompted two comprehension questions: a multiple choice question and a brief open answer question. You will be required to answer both questions for every scenario, meaning 16 questions in total.</p><p>To begin the experiment, hit the space bar.</p>","response":" ","trial_type":"html-keyboard-response","trial_index":0,"time_elapsed":8100,"internal_node_id":"0.0-0.0","subject_id":"5ed1717c9654ab0b17be2ceb","study_id":"6259a891582d1b81b094d7e2","session_id":"626069449e586b5b7e53f9f9","version":1},{"rt":91963,"response":{"P0_Q0":null,"multiQuestion":"sincere","Explanation":"It depends on other interactions between them but she says that she loves it - the omg could be saracastic though"},"accuracy":[],"embed_level":"b","question_id":"1b","trial_type":"survey","trial_index":1,"time_elapsed":100146,"internal_node_id":"0.0-1.0-0.0-0.0","subject_id":"5ed1717c9654ab0b17be2ceb","study_id":"6259a891582d1b81b094d7e2","session_id":"626069449e586b5b7e53f9f9","version":1},{"rt":47776,"response":{"P0_Q0":null,"multiQuestion":"sincere","Explanation":"It's a funny answer not sarcastic"},"accuracy":[],"embed_level":"c","question_id":"2c","trial_type":"survey","trial_index":2,"time_elapsed":147939,"internal_node_id":"0.0-1.0-0.1-0.1","subject_id":"5ed1717c9654ab0b17be2ceb","study_id":"6259a891582d1b81b094d7e2","session_id":"626069449e586b5b7e53f9f9","version":1},{"rt":27918,"response":{"P0_Q0":null,"multiQuestion":"sincere","Explanation":"she's trying to protect his feelings"},"accuracy":[],"embed_level":"a","question_id":"3a","trial_type":"survey","trial_index":3,"time_elapsed":175887,"internal_node_id":"0.0-1.0-0.2-0.2","subject_id":"5ed1717c9654ab0b17be2ceb","study_id":"6259a891582d1b81b094d7e2","session_id":"626069449e586b5b7e53f9f9","version":1},{"rt":41986,"response":{"P0_Q0":null,"multiQuestion":"sarcastic","Explanation":"although Margaret is scared of dogs the puppy is small and so not scary"},"accuracy":[],"embed_level":"b","question_id":"4b","trial_type":"survey","trial_index":4,"time_elapsed":217897,"internal_node_id":"0.0-1.0-0.3-0.3","subject_id":"5ed1717c9654ab0b17be2ceb","study_id":"6259a891582d1b81b094d7e2","session_id":"626069449e586b5b7e53f9f9","version":1},{"rt":56007,"response":{"P0_Q0":null,"multiQuestion":"sincere","Explanation":"Although intended as sarcastic Eric wouldn't have known about the conflict so will have interpreted as sincere"},"accuracy":[],"embed_level":"c","question_id":"5c","trial_type":"survey","trial_index":5,"time_elapsed":273931,"internal_node_id":"0.0-1.0-0.4-0.4","subject_id":"5ed1717c9654ab0b17be2ceb","study_id":"6259a891582d1b81b094d7e2","session_id":"626069449e586b5b7e53f9f9","version":1},{"rt":54468,"response":{"P0_Q0":null,"multiQuestion":"sarcastic","Explanation":"As the argument has been Davids only exposure to the brothers it will probably be interpreted as sarcastic"},"accuracy":[],"embed_level":"a","question_id":"6a","trial_type":"survey","trial_index":6,"time_elapsed":328430,"internal_node_id":"0.0-1.0-0.5-0.5","subject_id":"5ed1717c9654ab0b17be2ceb","study_id":"6259a891582d1b81b094d7e2","session_id":"626069449e586b5b7e53f9f9","version":1},{"rt":36587,"response":{"P0_Q0":null,"multiQuestion":"sincere","Explanation":"Ana still thinks he is a good person"},"accuracy":[],"embed_level":"a","question_id":"7a","trial_type":"survey","trial_index":7,"time_elapsed":365042,"internal_node_id":"0.0-1.0-0.6-0.6","subject_id":"5ed1717c9654ab0b17be2ceb","study_id":"6259a891582d1b81b094d7e2","session_id":"626069449e586b5b7e53f9f9","version":1},{"rt":42742,"response":{"P0_Q0":null,"multiQuestion":"sincere","Explanation":"She still had a nice trip even though it didn't turn out the way she'd hoped"},"accuracy":[],"embed_level":"b","question_id":"8b","trial_type":"survey","trial_index":8,"time_elapsed":407809,"internal_node_id":"0.0-1.0-0.7-0.7","subject_id":"5ed1717c9654ab0b17be2ceb","study_id":"6259a891582d1b81b094d7e2","session_id":"626069449e586b5b7e53f9f9","version":1}]