[{"rt":8854,"stimulus":"<p>In this experiment, you will be presented with 8 scenarios, which you must read carefully.</p><p>After reading each scenario, you will be prompted two comprehension questions: a multiple choice question and a brief open answer question. You will be required to answer both questions for every scenario, meaning 16 questions in total.</p><p>To begin the experiment, hit the space bar.</p>","response":"control","trial_type":"html-keyboard-response","trial_index":0,"time_elapsed":8858,"internal_node_id":"0.0-0.0","subject_id":"6047ae5953a87c02d47fc454","study_id":"6259a891582d1b81b094d7e2","session_id":"62606c53639311ec4254f41e","version":2},{"rt":100364,"response":{"P0_Q0":null,"multiQuestion":"sarcastic","Explanation":"I'm hoping that after these many years of relationship, both are being honest with each other. MEaning that both Alice and Olivia used sarcasm to say the same thing - that the haircut was terrible"},"accuracy":[],"embed_level":"a","question_id":"1a","trial_type":"survey","trial_index":1,"time_elapsed":109362,"internal_node_id":"0.0-1.0-0.0-0.0","subject_id":"6047ae5953a87c02d47fc454","study_id":"6259a891582d1b81b094d7e2","session_id":"62606c53639311ec4254f41e","version":2},{"rt":71744,"response":{"P0_Q0":null,"multiQuestion":"sincere","Explanation":"It's an exaggetation, but it´s clear in the message that Cathrin feels great"},"accuracy":[],"embed_level":"b","question_id":"2b","trial_type":"survey","trial_index":2,"time_elapsed":181132,"internal_node_id":"0.0-1.0-0.1-0.1","subject_id":"6047ae5953a87c02d47fc454","study_id":"6259a891582d1b81b094d7e2","session_id":"62606c53639311ec4254f41e","version":2},{"rt":105071,"response":{"P0_Q0":null,"multiQuestion":"sincere","Explanation":"Hmmm difficult one. I know the words that Anastasia used could be sarcasm, but I am not sure how much close Jake and Anastasia are - maybe she just wanted to be cool"},"accuracy":[],"embed_level":"b","question_id":"3b","trial_type":"survey","trial_index":3,"time_elapsed":286238,"internal_node_id":"0.0-1.0-0.2-0.2","subject_id":"6047ae5953a87c02d47fc454","study_id":"6259a891582d1b81b094d7e2","session_id":"62606c53639311ec4254f41e","version":2},{"rt":125261,"response":{"P0_Q0":null,"multiQuestion":"sarcastic","Explanation":"Julia has no clue of Margaret´s life, she wouln´t see the message as real. I don't understand why Margaret would send this message though"},"accuracy":[],"embed_level":"c","question_id":"4c","trial_type":"survey","trial_index":4,"time_elapsed":411527,"internal_node_id":"0.0-1.0-0.3-0.3","subject_id":"6047ae5953a87c02d47fc454","study_id":"6259a891582d1b81b094d7e2","session_id":"62606c53639311ec4254f41e","version":2},{"rt":134360,"response":{"P0_Q0":null,"multiQuestion":"sincere","Explanation":"I hope Eric takes it in a good way (as it is sincere). Phillip is clearly being sarcastic, but very rude, taking into account that he´s conducting interviews. Also, who cares about a jacket clashing with the outfit? Honestly.. "},"accuracy":[],"embed_level":"a","question_id":"5a","trial_type":"survey","trial_index":5,"time_elapsed":545915,"internal_node_id":"0.0-1.0-0.4-0.4","subject_id":"6047ae5953a87c02d47fc454","study_id":"6259a891582d1b81b094d7e2","session_id":"62606c53639311ec4254f41e","version":2},{"rt":125796,"response":{"P0_Q0":null,"multiQuestion":"sincere","Explanation":"Of course he sees it as a sincere comment! How cuould he not? Sibling relationships are love-hate relationships. Unless David is a single-child.... maybe then he would take it as sarcasm because he hasn´t experienced this type of relationships"},"accuracy":[],"embed_level":"b","question_id":"6b","trial_type":"survey","trial_index":6,"time_elapsed":671738,"internal_node_id":"0.0-1.0-0.5-0.5","subject_id":"6047ae5953a87c02d47fc454","study_id":"6259a891582d1b81b094d7e2","session_id":"62606c53639311ec4254f41e","version":2},{"rt":80411,"response":{"P0_Q0":null,"multiQuestion":"sincere","Explanation":"I'm sure Ken was shocked and dissappointed to see Ana hanging out with JAmes again. Ana should stop talking to her ex, nothing good will come up from that"},"accuracy":[],"embed_level":"c","question_id":"7c","trial_type":"survey","trial_index":7,"time_elapsed":752176,"internal_node_id":"0.0-1.0-0.6-0.6","subject_id":"6047ae5953a87c02d47fc454","study_id":"6259a891582d1b81b094d7e2","session_id":"62606c53639311ec4254f41e","version":2},{"rt":105350,"response":{"P0_Q0":null,"multiQuestion":"sincere","Explanation":"Clearly Elizabeth would think is sincere. She doesn´t know anything about the trip, the unexpected love, and the miserable end"},"accuracy":[],"embed_level":"c","question_id":"8c","trial_type":"survey","trial_index":8,"time_elapsed":857551,"internal_node_id":"0.0-1.0-0.7-0.7","subject_id":"6047ae5953a87c02d47fc454","study_id":"6259a891582d1b81b094d7e2","session_id":"62606c53639311ec4254f41e","version":2}]