[{"rt":5884,"stimulus":"<p>In this experiment, you will be presented with 8 scenarios, which you must read carefully.</p><p>After reading each scenario, you will be prompted two comprehension questions: a multiple choice question and a brief open answer question. You will be required to answer both questions for every scenario, meaning 16 questions in total.</p><p>To begin the experiment, hit the space bar.</p>","response":" ","trial_type":"html-keyboard-response","trial_index":0,"time_elapsed":5886,"internal_node_id":"0.0-0.0","subject_id":"5f088d02d931c10a63acc48f","study_id":"6259a891582d1b81b094d7e2","session_id":"6260b92299ed8888fb0cdcec","version":0},{"rt":91756,"response":{"P0_Q0":null,"multiQuestion":"sincere","Explanation":"the omg adds more excitement and sincerity to the response. the exclamation marks makes it seem like she is being sincere"},"accuracy":[],"embed_level":"c","question_id":"1c","trial_type":"survey","trial_index":1,"time_elapsed":97703,"internal_node_id":"0.0-1.0-0.0-0.0","subject_id":"5f088d02d931c10a63acc48f","study_id":"6259a891582d1b81b094d7e2","session_id":"6260b92299ed8888fb0cdcec","version":0},{"rt":88260,"response":{"P0_Q0":null,"multiQuestion":"sincere","Explanation":"although is making a comparison to lifting a cow, it doesn't make her response sarcastic, but shows her passion."},"accuracy":[],"embed_level":"a","question_id":"2a","trial_type":"survey","trial_index":2,"time_elapsed":185987,"internal_node_id":"0.0-1.0-0.1-0.1","subject_id":"5f088d02d931c10a63acc48f","study_id":"6259a891582d1b81b094d7e2","session_id":"6260b92299ed8888fb0cdcec","version":0},{"rt":102057,"response":{"P0_Q0":null,"multiQuestion":"sarcastic","Explanation":"jack knows hes a terrible cook, so the fact she said it was perfect, would suggest to jack that she is joking. Also the aren/t you so sweet is a bit patronising. "},"accuracy":[],"embed_level":"c","question_id":"3c","trial_type":"survey","trial_index":3,"time_elapsed":288094,"internal_node_id":"0.0-1.0-0.2-0.2","subject_id":"5f088d02d931c10a63acc48f","study_id":"6259a891582d1b81b094d7e2","session_id":"6260b92299ed8888fb0cdcec","version":0},{"rt":63472,"response":{"P0_Q0":null,"multiQuestion":"sincere","Explanation":"it is honest and truthful as margaret does not like dogs. Julia knows that not everyone likes dogs. "},"accuracy":[],"embed_level":"a","question_id":"4a","trial_type":"survey","trial_index":4,"time_elapsed":351599,"internal_node_id":"0.0-1.0-0.3-0.3","subject_id":"5f088d02d931c10a63acc48f","study_id":"6259a891582d1b81b094d7e2","session_id":"6260b92299ed8888fb0cdcec","version":0},{"rt":112075,"response":{"P0_Q0":null,"multiQuestion":"sincere","Explanation":"Although philip scoffed, eric doesn't know it was because of the jacket. Also as he just sent a kind gesture to phillip, he would expect something sincere in return, not a sarcastic comment as that is rude. "},"accuracy":[],"embed_level":"b","question_id":"5b","trial_type":"survey","trial_index":5,"time_elapsed":463703,"internal_node_id":"0.0-1.0-0.4-0.4","subject_id":"5f088d02d931c10a63acc48f","study_id":"6259a891582d1b81b094d7e2","session_id":"6260b92299ed8888fb0cdcec","version":0},{"rt":105099,"response":{"P0_Q0":null,"multiQuestion":"sarcastic","Explanation":"he had a heated argument in front of david. david knows they've had a sensitive argument and would be able to see that jeremy is being sarcastic."},"accuracy":[],"embed_level":"c","question_id":"6c","trial_type":"survey","trial_index":6,"time_elapsed":568831,"internal_node_id":"0.0-1.0-0.5-0.5","subject_id":"5f088d02d931c10a63acc48f","study_id":"6259a891582d1b81b094d7e2","session_id":"6260b92299ed8888fb0cdcec","version":0},{"rt":92330,"response":{"P0_Q0":null,"multiQuestion":"sarcastic","Explanation":"Although Ana genuinely thinks james is a good person, other people such as ken clearly does not know this, otherwise he wouldnt have asked. Also they had a very dramatic fight so people clearly think they are not on good terms because of that."},"accuracy":[],"embed_level":"b","question_id":"7b","trial_type":"survey","trial_index":7,"time_elapsed":661186,"internal_node_id":"0.0-1.0-0.6-0.6","subject_id":"5f088d02d931c10a63acc48f","study_id":"6259a891582d1b81b094d7e2","session_id":"6260b92299ed8888fb0cdcec","version":0},{"rt":72167,"response":{"P0_Q0":null,"multiQuestion":"sincere","Explanation":"I think she would interpret it as sincere, but knows that something happened during it, as the response is quite brief and short."},"accuracy":[],"embed_level":"a","question_id":"8a","trial_type":"survey","trial_index":8,"time_elapsed":733393,"internal_node_id":"0.0-1.0-0.7-0.7","subject_id":"5f088d02d931c10a63acc48f","study_id":"6259a891582d1b81b094d7e2","session_id":"6260b92299ed8888fb0cdcec","version":0}]