[{"rt":7468,"stimulus":"<p>In this experiment, you will be presented with 8 scenarios, which you must read carefully.</p><p>After reading each scenario, you will be prompted two comprehension questions: a multiple choice question and a brief open answer question. You will be required to answer both questions for every scenario, meaning 16 questions in total.</p><p>To begin the experiment, hit the space bar.</p>","response":" ","trial_type":"html-keyboard-response","trial_index":0,"time_elapsed":7470,"internal_node_id":"0.0-0.0","subject_id":"5a0c036857cee70001767a58","study_id":"6259a891582d1b81b094d7e2","session_id":"6260b93f3b9085826c74318b","version":1},{"rt":79513,"response":{"P0_Q0":null,"multiQuestion":"sincere","Explanation":"she would be happy for her friend and would be pleased she likes it"},"accuracy":[],"embed_level":"b","question_id":"1b","trial_type":"survey","trial_index":1,"time_elapsed":87022,"internal_node_id":"0.0-1.0-0.0-0.0","subject_id":"5a0c036857cee70001767a58","study_id":"6259a891582d1b81b094d7e2","session_id":"6260b93f3b9085826c74318b","version":1},{"rt":100149,"response":{"P0_Q0":null,"multiQuestion":"sarcastic","Explanation":"it is not sincere as it is not a serious comment, more witty"},"accuracy":[],"embed_level":"c","question_id":"2c","trial_type":"survey","trial_index":2,"time_elapsed":187180,"internal_node_id":"0.0-1.0-0.1-0.1","subject_id":"5a0c036857cee70001767a58","study_id":"6259a891582d1b81b094d7e2","session_id":"6260b93f3b9085826c74318b","version":1},{"rt":77352,"response":{"P0_Q0":null,"multiQuestion":"sincere","Explanation":"Jack does not know his mistake so he would think the cake was perfect"},"accuracy":[],"embed_level":"a","question_id":"3a","trial_type":"survey","trial_index":3,"time_elapsed":264548,"internal_node_id":"0.0-1.0-0.2-0.2","subject_id":"5a0c036857cee70001767a58","study_id":"6259a891582d1b81b094d7e2","session_id":"6260b93f3b9085826c74318b","version":1},{"rt":72600,"response":{"P0_Q0":null,"multiQuestion":"sarcastic","Explanation":"dog owners do not accept their own pet is scary even if Margaret genuinely sees it that way"},"accuracy":[],"embed_level":"b","question_id":"4b","trial_type":"survey","trial_index":4,"time_elapsed":337164,"internal_node_id":"0.0-1.0-0.3-0.3","subject_id":"5a0c036857cee70001767a58","study_id":"6259a891582d1b81b094d7e2","session_id":"6260b93f3b9085826c74318b","version":1},{"rt":85112,"response":{"P0_Q0":null,"multiQuestion":"sincere","Explanation":"Eric does not know about the conflict with the jacket brand or he would not have worn it for the interview"},"accuracy":[],"embed_level":"c","question_id":"5c","trial_type":"survey","trial_index":5,"time_elapsed":422291,"internal_node_id":"0.0-1.0-0.4-0.4","subject_id":"5a0c036857cee70001767a58","study_id":"6259a891582d1b81b094d7e2","session_id":"6260b93f3b9085826c74318b","version":1},{"rt":68458,"response":{"P0_Q0":null,"multiQuestion":"sincere","Explanation":"even though they fight he enjoys spending time with his brother and genuinely thinks that"},"accuracy":[],"embed_level":"a","question_id":"6a","trial_type":"survey","trial_index":6,"time_elapsed":490762,"internal_node_id":"0.0-1.0-0.5-0.5","subject_id":"5a0c036857cee70001767a58","study_id":"6259a891582d1b81b094d7e2","session_id":"6260b93f3b9085826c74318b","version":1},{"rt":71776,"response":{"P0_Q0":null,"multiQuestion":"sarcastic","Explanation":"his last memory would be the dramatic fight so he would find that hard to believe"},"accuracy":[],"embed_level":"a","question_id":"7a","trial_type":"survey","trial_index":7,"time_elapsed":562553,"internal_node_id":"0.0-1.0-0.6-0.6","subject_id":"5a0c036857cee70001767a58","study_id":"6259a891582d1b81b094d7e2","session_id":"6260b93f3b9085826c74318b","version":1},{"rt":62257,"response":{"P0_Q0":null,"multiQuestion":"sincere","Explanation":"she does not know what happened on the trip and had no reason to suspect otherwise"},"accuracy":[],"embed_level":"b","question_id":"8b","trial_type":"survey","trial_index":8,"time_elapsed":624825,"internal_node_id":"0.0-1.0-0.7-0.7","subject_id":"5a0c036857cee70001767a58","study_id":"6259a891582d1b81b094d7e2","session_id":"6260b93f3b9085826c74318b","version":1}]