[{"rt":2620,"stimulus":"<p>In this experiment, you will be presented with 8 scenarios, which you must read carefully.</p><p>After reading each scenario, you will be prompted two comprehension questions: a multiple choice question and a brief open answer question. You will be required to answer both questions for every scenario, meaning 16 questions in total.</p><p>To begin the experiment, hit the space bar.</p>","response":" ","trial_type":"html-keyboard-response","trial_index":0,"time_elapsed":2622,"internal_node_id":"0.0-0.0","subject_id":"5fe102a5d1340cb2217d036a","study_id":"6259a891582d1b81b094d7e2","session_id":"62606c3181909aac3e6d585b","version":0},{"rt":31363,"response":{"P0_Q0":null,"multiQuestion":"sarcastic","Explanation":"She doesn't want her to have the same hairstyle "},"accuracy":[],"embed_level":"c","question_id":"1c","trial_type":"survey","trial_index":1,"time_elapsed":34042,"internal_node_id":"0.0-1.0-0.0-0.0","subject_id":"5fe102a5d1340cb2217d036a","study_id":"6259a891582d1b81b094d7e2","session_id":"62606c3181909aac3e6d585b","version":0},{"rt":18165,"response":{"P0_Q0":null,"multiQuestion":"sincere","Explanation":"She is happy after hitting a PR "},"accuracy":[],"embed_level":"a","question_id":"2a","trial_type":"survey","trial_index":2,"time_elapsed":52221,"internal_node_id":"0.0-1.0-0.1-0.1","subject_id":"5fe102a5d1340cb2217d036a","study_id":"6259a891582d1b81b094d7e2","session_id":"62606c3181909aac3e6d585b","version":0},{"rt":28006,"response":{"P0_Q0":null,"multiQuestion":"sincere","Explanation":"She is being nice because she doesn't want to hurt his feelings "},"accuracy":[],"embed_level":"c","question_id":"3c","trial_type":"survey","trial_index":3,"time_elapsed":80239,"internal_node_id":"0.0-1.0-0.2-0.2","subject_id":"5fe102a5d1340cb2217d036a","study_id":"6259a891582d1b81b094d7e2","session_id":"62606c3181909aac3e6d585b","version":0},{"rt":17644,"response":{"P0_Q0":null,"multiQuestion":"sarcastic","Explanation":"Because people are ignorant to phobias "},"accuracy":[],"embed_level":"a","question_id":"4a","trial_type":"survey","trial_index":4,"time_elapsed":97904,"internal_node_id":"0.0-1.0-0.3-0.3","subject_id":"5fe102a5d1340cb2217d036a","study_id":"6259a891582d1b81b094d7e2","session_id":"62606c3181909aac3e6d585b","version":0},{"rt":19073,"response":{"P0_Q0":null,"multiQuestion":"sarcastic","Explanation":"Was probably being bitchy "},"accuracy":[],"embed_level":"b","question_id":"5b","trial_type":"survey","trial_index":5,"time_elapsed":116996,"internal_node_id":"0.0-1.0-0.4-0.4","subject_id":"5fe102a5d1340cb2217d036a","study_id":"6259a891582d1b81b094d7e2","session_id":"62606c3181909aac3e6d585b","version":0},{"rt":22013,"response":{"P0_Q0":null,"multiQuestion":"sarcastic","Explanation":"Because they have just fought "},"accuracy":[],"embed_level":"c","question_id":"6c","trial_type":"survey","trial_index":6,"time_elapsed":139029,"internal_node_id":"0.0-1.0-0.5-0.5","subject_id":"5fe102a5d1340cb2217d036a","study_id":"6259a891582d1b81b094d7e2","session_id":"62606c3181909aac3e6d585b","version":0},{"rt":17123,"response":{"P0_Q0":null,"multiQuestion":"sincere","Explanation":"She considers him a good friend "},"accuracy":[],"embed_level":"b","question_id":"7b","trial_type":"survey","trial_index":7,"time_elapsed":156173,"internal_node_id":"0.0-1.0-0.6-0.6","subject_id":"5fe102a5d1340cb2217d036a","study_id":"6259a891582d1b81b094d7e2","session_id":"62606c3181909aac3e6d585b","version":0},{"rt":31313,"response":{"P0_Q0":null,"multiQuestion":"sincere","Explanation":"She had a good time, but is still trying to process her emotions "},"accuracy":[],"embed_level":"a","question_id":"8a","trial_type":"survey","trial_index":8,"time_elapsed":187506,"internal_node_id":"0.0-1.0-0.7-0.7","subject_id":"5fe102a5d1340cb2217d036a","study_id":"6259a891582d1b81b094d7e2","session_id":"62606c3181909aac3e6d585b","version":0}]