[{"rt":11891,"stimulus":"<p>In this experiment, you will be presented with 8 scenarios, which you must read carefully.</p><p>After reading each scenario, you will be prompted two comprehension questions: a multiple choice question and a brief open answer question. You will be required to answer both questions for every scenario, meaning 16 questions in total.</p><p>To begin the experiment, hit the space bar.</p>","response":" ","trial_type":"html-keyboard-response","trial_index":0,"time_elapsed":11893,"internal_node_id":"0.0-0.0","subject_id":"5c5eb5f38f58370001393878","study_id":"6259a891582d1b81b094d7e2","session_id":"62606c9c4d4b272826e69c38","version":1},{"rt":61876,"response":{"P0_Q0":null,"multiQuestion":"sincere","Explanation":"I would expect a good friend to not be critical of the new hairstyle."},"accuracy":[],"embed_level":"b","question_id":"1b","trial_type":"survey","trial_index":1,"time_elapsed":73820,"internal_node_id":"0.0-1.0-0.0-0.0","subject_id":"5c5eb5f38f58370001393878","study_id":"6259a891582d1b81b094d7e2","session_id":"62606c9c4d4b272826e69c38","version":1},{"rt":72730,"response":{"P0_Q0":null,"multiQuestion":"sincere","Explanation":"If Jane is aware of her injury she would know Catherine would be pleased to regain her fitness."},"accuracy":[],"embed_level":"c","question_id":"2c","trial_type":"survey","trial_index":2,"time_elapsed":146563,"internal_node_id":"0.0-1.0-0.1-0.1","subject_id":"5c5eb5f38f58370001393878","study_id":"6259a891582d1b81b094d7e2","session_id":"62606c9c4d4b272826e69c38","version":1},{"rt":76219,"response":{"P0_Q0":null,"multiQuestion":"sincere","Explanation":"If Jack did not realize his error, he would not have context to assume Anastasia was being sarcastic."},"accuracy":[],"embed_level":"a","question_id":"3a","trial_type":"survey","trial_index":3,"time_elapsed":222803,"internal_node_id":"0.0-1.0-0.2-0.2","subject_id":"5c5eb5f38f58370001393878","study_id":"6259a891582d1b81b094d7e2","session_id":"62606c9c4d4b272826e69c38","version":1},{"rt":53242,"response":{"P0_Q0":null,"multiQuestion":"sarcastic","Explanation":"Julia would not be aware of Margaret's aversion to dogs."},"accuracy":[],"embed_level":"b","question_id":"4b","trial_type":"survey","trial_index":4,"time_elapsed":276068,"internal_node_id":"0.0-1.0-0.3-0.3","subject_id":"5c5eb5f38f58370001393878","study_id":"6259a891582d1b81b094d7e2","session_id":"62606c9c4d4b272826e69c38","version":1},{"rt":58273,"response":{"P0_Q0":null,"multiQuestion":"sincere","Explanation":"Eric would not have known the backstory behind Philip's loathing of his jacket."},"accuracy":[],"embed_level":"c","question_id":"5c","trial_type":"survey","trial_index":5,"time_elapsed":334362,"internal_node_id":"0.0-1.0-0.4-0.4","subject_id":"5c5eb5f38f58370001393878","study_id":"6259a891582d1b81b094d7e2","session_id":"62606c9c4d4b272826e69c38","version":1},{"rt":55251,"response":{"P0_Q0":null,"multiQuestion":"sarcastic","Explanation":"David would have witnessed the fight and would expect the brothers to always be fighting."},"accuracy":[],"embed_level":"a","question_id":"6a","trial_type":"survey","trial_index":6,"time_elapsed":389633,"internal_node_id":"0.0-1.0-0.5-0.5","subject_id":"5c5eb5f38f58370001393878","study_id":"6259a891582d1b81b094d7e2","session_id":"62606c9c4d4b272826e69c38","version":1},{"rt":69124,"response":{"P0_Q0":null,"multiQuestion":"sarcastic","Explanation":"Given the circumstances of James and Ana's breakup, he would most likely believe she was being disingenuous."},"accuracy":[],"embed_level":"a","question_id":"7a","trial_type":"survey","trial_index":7,"time_elapsed":458777,"internal_node_id":"0.0-1.0-0.6-0.6","subject_id":"5c5eb5f38f58370001393878","study_id":"6259a891582d1b81b094d7e2","session_id":"62606c9c4d4b272826e69c38","version":1},{"rt":81213,"response":{"P0_Q0":null,"multiQuestion":"sincere","Explanation":"Elizabeth would not know the inner turmoil the trip had brewed in May, so she would probably take the comment at face value."},"accuracy":[],"embed_level":"b","question_id":"8b","trial_type":"survey","trial_index":8,"time_elapsed":540008,"internal_node_id":"0.0-1.0-0.7-0.7","subject_id":"5c5eb5f38f58370001393878","study_id":"6259a891582d1b81b094d7e2","session_id":"62606c9c4d4b272826e69c38","version":1}]