[{"rt":20004,"stimulus":"<p>In this experiment, you will be presented with 8 scenarios, which you must read carefully.</p><p>After reading each scenario, you will be prompted two comprehension questions: a multiple choice question and a brief open answer question. You will be required to answer both questions for every scenario, meaning 16 questions in total.</p><p>To begin the experiment, hit the space bar.</p>","response":"f11","trial_type":"html-keyboard-response","trial_index":0,"time_elapsed":20016,"internal_node_id":"0.0-0.0","subject_id":"5f195c019ae403000828b46b","study_id":"6259a891582d1b81b094d7e2","session_id":"6260bd7b9f1afe615827802e","version":2},{"rt":147825,"response":{"P0_Q0":null,"multiQuestion":"sincere","Explanation":"because they have been friends for so long Alice is happy to boost Olivia with the compliment."},"accuracy":[],"embed_level":"a","question_id":"1a","trial_type":"survey","trial_index":1,"time_elapsed":168158,"internal_node_id":"0.0-1.0-0.0-0.0","subject_id":"5f195c019ae403000828b46b","study_id":"6259a891582d1b81b094d7e2","session_id":"6260bd7b9f1afe615827802e","version":2},{"rt":142149,"response":{"P0_Q0":null,"multiQuestion":"sincere","Explanation":"Catherine is in full recovery and feeling great, this reply does not sound sarcastic to me."},"accuracy":[],"embed_level":"b","question_id":"2b","trial_type":"survey","trial_index":2,"time_elapsed":310403,"internal_node_id":"0.0-1.0-0.1-0.1","subject_id":"5f195c019ae403000828b46b","study_id":"6259a891582d1b81b094d7e2","session_id":"6260bd7b9f1afe615827802e","version":2},{"rt":166697,"response":{"P0_Q0":null,"multiQuestion":"sarcastic","Explanation":"Confusing salt with sugar gives the answer aren't you so sweet as sarcastic remark not sincere."},"accuracy":[],"embed_level":"b","question_id":"3b","trial_type":"survey","trial_index":3,"time_elapsed":477229,"internal_node_id":"0.0-1.0-0.2-0.2","subject_id":"5f195c019ae403000828b46b","study_id":"6259a891582d1b81b094d7e2","session_id":"6260bd7b9f1afe615827802e","version":2},{"rt":112053,"response":{"P0_Q0":null,"multiQuestion":"sincere","Explanation":"Margaret has a clear fear of dogs and is sincere in her response to Julia."},"accuracy":[],"embed_level":"c","question_id":"4c","trial_type":"survey","trial_index":4,"time_elapsed":589421,"internal_node_id":"0.0-1.0-0.3-0.3","subject_id":"5f195c019ae403000828b46b","study_id":"6259a891582d1b81b094d7e2","session_id":"6260bd7b9f1afe615827802e","version":2},{"rt":159017,"response":{"P0_Q0":null,"multiQuestion":"sincere","Explanation":"I believe Eric would find the reply sincere as he doesn't know Phillip enough to gauge his sarcasm"},"accuracy":[],"embed_level":"a","question_id":"5a","trial_type":"survey","trial_index":5,"time_elapsed":748566,"internal_node_id":"0.0-1.0-0.4-0.4","subject_id":"5f195c019ae403000828b46b","study_id":"6259a891582d1b81b094d7e2","session_id":"6260bd7b9f1afe615827802e","version":2},{"rt":207063,"response":{"P0_Q0":null,"multiQuestion":"sarcastic","Explanation":"This is how kids/teens behave and give banter at every opportunity in order to break the ice with others they do not know very well."},"accuracy":[],"embed_level":"b","question_id":"6b","trial_type":"survey","trial_index":6,"time_elapsed":955755,"internal_node_id":"0.0-1.0-0.5-0.5","subject_id":"5f195c019ae403000828b46b","study_id":"6259a891582d1b81b094d7e2","session_id":"6260bd7b9f1afe615827802e","version":2},{"rt":299200,"response":{"P0_Q0":null,"multiQuestion":"sarcastic","Explanation":"Nothing says to me that Ana is anything but sincere, however, Ken would know this since he hasn't spoken with Ana since the breakup."},"accuracy":[],"embed_level":"c","question_id":"7c","trial_type":"survey","trial_index":7,"time_elapsed":1255061,"internal_node_id":"0.0-1.0-0.6-0.6","subject_id":"5f195c019ae403000828b46b","study_id":"6259a891582d1b81b094d7e2","session_id":"6260bd7b9f1afe615827802e","version":2},{"rt":231858,"response":{"P0_Q0":null,"multiQuestion":"sarcastic","Explanation":"The trip was ruined to the point that May had had enough to the point that sincerity went out the window."},"accuracy":[],"embed_level":"c","question_id":"8c","trial_type":"survey","trial_index":8,"time_elapsed":1487044,"internal_node_id":"0.0-1.0-0.7-0.7","subject_id":"5f195c019ae403000828b46b","study_id":"6259a891582d1b81b094d7e2","session_id":"6260bd7b9f1afe615827802e","version":2}]