[{"rt":11090,"stimulus":"<p>In this experiment, you will be presented with 8 scenarios, which you must read carefully.</p><p>After reading each scenario, you will be prompted two comprehension questions: a multiple choice question and a brief open answer question. You will be required to answer both questions for every scenario, meaning 16 questions in total.</p><p>To begin the experiment, hit the space bar.</p>","response":" ","trial_type":"html-keyboard-response","trial_index":0,"time_elapsed":11094,"internal_node_id":"0.0-0.0","subject_id":"61150ec9ff89021c26dcd061","study_id":"6259a891582d1b81b094d7e2","session_id":"62606cd65b5d8f05d5d0a9ce","version":1},{"rt":207673,"response":{"P0_Q0":null,"multiQuestion":"sincere","Explanation":"Olivia doesn't have any existing knowledge that Alice is upset about the hairstyle, so she would probably take the message as sincere."},"accuracy":[],"embed_level":"b","question_id":"1b","trial_type":"survey","trial_index":1,"time_elapsed":218854,"internal_node_id":"0.0-1.0-0.0-0.0","subject_id":"61150ec9ff89021c26dcd061","study_id":"6259a891582d1b81b094d7e2","session_id":"62606cd65b5d8f05d5d0a9ce","version":1},{"rt":143852,"response":{"P0_Q0":null,"multiQuestion":"sincere","Explanation":"Jane would likely be anticipating a more tempered reply. Catherine's message probably carries an unusual amount of enthusiasm which would lean towards sincerity."},"accuracy":[],"embed_level":"c","question_id":"2c","trial_type":"survey","trial_index":2,"time_elapsed":362721,"internal_node_id":"0.0-1.0-0.1-0.1","subject_id":"61150ec9ff89021c26dcd061","study_id":"6259a891582d1b81b094d7e2","session_id":"62606cd65b5d8f05d5d0a9ce","version":1},{"rt":95839,"response":{"P0_Q0":null,"multiQuestion":"sincere","Explanation":"Lacking any knowledge of salt/sugar mix-up, I would expect Jack to assume this to be sincere."},"accuracy":[],"embed_level":"a","question_id":"3a","trial_type":"survey","trial_index":3,"time_elapsed":458580,"internal_node_id":"0.0-1.0-0.2-0.2","subject_id":"61150ec9ff89021c26dcd061","study_id":"6259a891582d1b81b094d7e2","session_id":"62606cd65b5d8f05d5d0a9ce","version":1},{"rt":292352,"response":{"P0_Q0":null,"multiQuestion":"sarcastic","Explanation":"As recent acquaintances, Julia may not be aware of Margaret's dog aversion. Given the number of \"cute\" replies she's received, Julia may assume Margaret is making a playful compliment rather than a sincere expression of fear."},"accuracy":[],"embed_level":"b","question_id":"4b","trial_type":"survey","trial_index":4,"time_elapsed":750948,"internal_node_id":"0.0-1.0-0.3-0.3","subject_id":"61150ec9ff89021c26dcd061","study_id":"6259a891582d1b81b094d7e2","session_id":"62606cd65b5d8f05d5d0a9ce","version":1},{"rt":402199,"response":{"P0_Q0":null,"multiQuestion":"sincere","Explanation":"Unless Eric specifically noticed that Philip's scoff was directed towards the jacket, or knew the history of the company rivalry, he would likely think it's sincere."},"accuracy":[],"embed_level":"c","question_id":"5c","trial_type":"survey","trial_index":5,"time_elapsed":1153166,"internal_node_id":"0.0-1.0-0.4-0.4","subject_id":"61150ec9ff89021c26dcd061","study_id":"6259a891582d1b81b094d7e2","session_id":"62606cd65b5d8f05d5d0a9ce","version":1},{"rt":170693,"response":{"P0_Q0":null,"multiQuestion":"sarcastic","Explanation":"Lacking more knowledge of the brothers and with the most recent interaction David witnessed between them being a heated argument, so he would likely believe Jeremy was being sarcastic."},"accuracy":[],"embed_level":"a","question_id":"6a","trial_type":"survey","trial_index":6,"time_elapsed":1323872,"internal_node_id":"0.0-1.0-0.5-0.5","subject_id":"61150ec9ff89021c26dcd061","study_id":"6259a891582d1b81b094d7e2","session_id":"62606cd65b5d8f05d5d0a9ce","version":1},{"rt":293663,"response":{"P0_Q0":null,"multiQuestion":"sincere","Explanation":"Knowledge of the break up fight might cause Ken to expect a negative response, but I would assume that since he's asking after a year-long cooling off period that he'd expect a sincere answer from Ana."},"accuracy":[],"embed_level":"a","question_id":"7a","trial_type":"survey","trial_index":7,"time_elapsed":1617548,"internal_node_id":"0.0-1.0-0.6-0.6","subject_id":"61150ec9ff89021c26dcd061","study_id":"6259a891582d1b81b094d7e2","session_id":"62606cd65b5d8f05d5d0a9ce","version":1},{"rt":211712,"response":{"P0_Q0":null,"multiQuestion":"sarcastic","Explanation":"\"Nice\" is a very bland summary of a long road trip, and Elizabeth would likely assume there is more to May's feelings than what's present in her text."},"accuracy":[],"embed_level":"b","question_id":"8b","trial_type":"survey","trial_index":8,"time_elapsed":1829274,"internal_node_id":"0.0-1.0-0.7-0.7","subject_id":"61150ec9ff89021c26dcd061","study_id":"6259a891582d1b81b094d7e2","session_id":"62606cd65b5d8f05d5d0a9ce","version":1}]