[{"rt":2704,"stimulus":"<p>In this experiment, you will be presented with 8 scenarios, which you must read carefully.</p><p>After reading each scenario, you will be prompted two comprehension questions: a multiple choice question and a brief open answer question. You will be required to answer both questions for every scenario, meaning 16 questions in total.</p><p>To begin the experiment, hit the space bar.</p>","response":" ","trial_type":"html-keyboard-response","trial_index":0,"time_elapsed":2711,"internal_node_id":"0.0-0.0","subject_id":"6011c25d7a8e931697461500","study_id":"6259a891582d1b81b094d7e2","session_id":"62606c5347bf0005d289ef9a","version":0},{"rt":123686,"response":{"P0_Q0":null,"multiQuestion":"sincere","Explanation":"Because they're best friends that do everything together.Because Alice has so far kept her feelings to herself, so Olivia would have no reason to suspect Alice's comments as anything other than sincere."},"accuracy":[],"embed_level":"c","question_id":"1c","trial_type":"survey","trial_index":1,"time_elapsed":126520,"internal_node_id":"0.0-1.0-0.0-0.0","subject_id":"6011c25d7a8e931697461500","study_id":"6259a891582d1b81b094d7e2","session_id":"62606c5347bf0005d289ef9a","version":0},{"rt":68794,"response":{"P0_Q0":null,"multiQuestion":"sincere","Explanation":"Because Catherine is just using a silly statement to express her excitement at being back in the gym."},"accuracy":[],"embed_level":"a","question_id":"2a","trial_type":"survey","trial_index":2,"time_elapsed":195351,"internal_node_id":"0.0-1.0-0.1-0.1","subject_id":"6011c25d7a8e931697461500","study_id":"6259a891582d1b81b094d7e2","session_id":"62606c5347bf0005d289ef9a","version":0},{"rt":109365,"response":{"P0_Q0":null,"multiQuestion":"sarcastic","Explanation":"Because despite the cake being awful, Jack has made a massive effort for Anastasia's birthday, and she wouldn't want to hurt his feelings."},"accuracy":[],"embed_level":"c","question_id":"3c","trial_type":"survey","trial_index":3,"time_elapsed":304774,"internal_node_id":"0.0-1.0-0.2-0.2","subject_id":"6011c25d7a8e931697461500","study_id":"6259a891582d1b81b094d7e2","session_id":"62606c5347bf0005d289ef9a","version":0},{"rt":53403,"response":{"P0_Q0":null,"multiQuestion":"sarcastic","Explanation":"Because everyone usually fawns over her dog, Julia would probably think Margaret is joking."},"accuracy":[],"embed_level":"a","question_id":"4a","trial_type":"survey","trial_index":4,"time_elapsed":358222,"internal_node_id":"0.0-1.0-0.3-0.3","subject_id":"6011c25d7a8e931697461500","study_id":"6259a891582d1b81b094d7e2","session_id":"62606c5347bf0005d289ef9a","version":0},{"rt":95031,"response":{"P0_Q0":null,"multiQuestion":"sincere","Explanation":"Because Eric wouldn't expect anything other than a professional message following a formal interview."},"accuracy":[],"embed_level":"b","question_id":"5b","trial_type":"survey","trial_index":5,"time_elapsed":453307,"internal_node_id":"0.0-1.0-0.4-0.4","subject_id":"6011c25d7a8e931697461500","study_id":"6259a891582d1b81b094d7e2","session_id":"62606c5347bf0005d289ef9a","version":0},{"rt":55961,"response":{"P0_Q0":null,"multiQuestion":"sarcastic","Explanation":"Because David has just witnessed something to the contrary."},"accuracy":[],"embed_level":"c","question_id":"6c","trial_type":"survey","trial_index":6,"time_elapsed":509335,"internal_node_id":"0.0-1.0-0.5-0.5","subject_id":"6011c25d7a8e931697461500","study_id":"6259a891582d1b81b094d7e2","session_id":"62606c5347bf0005d289ef9a","version":0},{"rt":69654,"response":{"P0_Q0":null,"multiQuestion":"sincere","Explanation":"Because she has no reason to be anything other than genuine about it to a friend, especially when she is on good terms now with James."},"accuracy":[],"embed_level":"b","question_id":"7b","trial_type":"survey","trial_index":7,"time_elapsed":579043,"internal_node_id":"0.0-1.0-0.6-0.6","subject_id":"6011c25d7a8e931697461500","study_id":"6259a891582d1b81b094d7e2","session_id":"62606c5347bf0005d289ef9a","version":0},{"rt":98687,"response":{"P0_Q0":null,"multiQuestion":"sincere","Explanation":"Because May had not confided in anyone about the crush, so had no reason to be anything other than genuine to her friends about the trip."},"accuracy":[],"embed_level":"a","question_id":"8a","trial_type":"survey","trial_index":8,"time_elapsed":677802,"internal_node_id":"0.0-1.0-0.7-0.7","subject_id":"6011c25d7a8e931697461500","study_id":"6259a891582d1b81b094d7e2","session_id":"62606c5347bf0005d289ef9a","version":0}]