[{"rt":10563,"stimulus":"<p>In this experiment, you will be presented with 8 scenarios, which you must read carefully.</p><p>After reading each scenario, you will be prompted two comprehension questions: a multiple choice question and a brief open answer question. You will be required to answer both questions for every scenario, meaning 16 questions in total.</p><p>To begin the experiment, hit the space bar.</p>","response":" ","trial_type":"html-keyboard-response","trial_index":0,"time_elapsed":10565,"internal_node_id":"0.0-0.0","subject_id":"5f5174760868af3ce9a5d9f7","study_id":"6259a891582d1b81b094d7e2","session_id":"6260b921fb33662f159f9571","version":1},{"rt":164512,"response":{"P0_Q0":null,"multiQuestion":"sincere","Explanation":"She doesn't know Alice's real life reaction and can only take her opinion from her text. Which case Olivia thinks Alice approves of it."},"accuracy":[],"embed_level":"b","question_id":"1b","trial_type":"survey","trial_index":1,"time_elapsed":175116,"internal_node_id":"0.0-1.0-0.0-0.0","subject_id":"5f5174760868af3ce9a5d9f7","study_id":"6259a891582d1b81b094d7e2","session_id":"6260b921fb33662f159f9571","version":1},{"rt":146313,"response":{"P0_Q0":null,"multiQuestion":"sincere","Explanation":"Catherine is using a simile to describe how she's feeling. "},"accuracy":[],"embed_level":"c","question_id":"2c","trial_type":"survey","trial_index":2,"time_elapsed":321441,"internal_node_id":"0.0-1.0-0.1-0.1","subject_id":"5f5174760868af3ce9a5d9f7","study_id":"6259a891582d1b81b094d7e2","session_id":"6260b921fb33662f159f9571","version":1},{"rt":162519,"response":{"P0_Q0":null,"multiQuestion":"sincere","Explanation":"He doesn't know that he messed up the ingredients therefore he believes the text is sincere. "},"accuracy":[],"embed_level":"a","question_id":"3a","trial_type":"survey","trial_index":3,"time_elapsed":483974,"internal_node_id":"0.0-1.0-0.2-0.2","subject_id":"5f5174760868af3ce9a5d9f7","study_id":"6259a891582d1b81b094d7e2","session_id":"6260b921fb33662f159f9571","version":1},{"rt":56599,"response":{"P0_Q0":null,"multiQuestion":"sincere","Explanation":"Its her personal opinion."},"accuracy":[],"embed_level":"b","question_id":"4b","trial_type":"survey","trial_index":4,"time_elapsed":540586,"internal_node_id":"0.0-1.0-0.3-0.3","subject_id":"5f5174760868af3ce9a5d9f7","study_id":"6259a891582d1b81b094d7e2","session_id":"6260b921fb33662f159f9571","version":1},{"rt":145045,"response":{"P0_Q0":null,"multiQuestion":"sincere","Explanation":"Eric doesn't know the circumstance of which his jacket has on Phillip"},"accuracy":[],"embed_level":"c","question_id":"5c","trial_type":"survey","trial_index":5,"time_elapsed":685644,"internal_node_id":"0.0-1.0-0.4-0.4","subject_id":"5f5174760868af3ce9a5d9f7","study_id":"6259a891582d1b81b094d7e2","session_id":"6260b921fb33662f159f9571","version":1},{"rt":101573,"response":{"P0_Q0":null,"multiQuestion":"sarcastic","Explanation":"From David's point of view, he would think Jeremy doesn't like Spencer much therefore his interpretation would be sarcastic"},"accuracy":[],"embed_level":"a","question_id":"6a","trial_type":"survey","trial_index":6,"time_elapsed":787229,"internal_node_id":"0.0-1.0-0.5-0.5","subject_id":"5f5174760868af3ce9a5d9f7","study_id":"6259a891582d1b81b094d7e2","session_id":"6260b921fb33662f159f9571","version":1},{"rt":49299,"response":{"P0_Q0":null,"multiQuestion":"sincere","Explanation":"despite their past, she still has a place in her heart for him."},"accuracy":[],"embed_level":"a","question_id":"7a","trial_type":"survey","trial_index":7,"time_elapsed":836540,"internal_node_id":"0.0-1.0-0.6-0.6","subject_id":"5f5174760868af3ce9a5d9f7","study_id":"6259a891582d1b81b094d7e2","session_id":"6260b921fb33662f159f9571","version":1},{"rt":118479,"response":{"P0_Q0":null,"multiQuestion":"sincere","Explanation":"Its a very basic reply and will most likely assume that May is enjoyed herself."},"accuracy":[],"embed_level":"b","question_id":"8b","trial_type":"survey","trial_index":8,"time_elapsed":955031,"internal_node_id":"0.0-1.0-0.7-0.7","subject_id":"5f5174760868af3ce9a5d9f7","study_id":"6259a891582d1b81b094d7e2","session_id":"6260b921fb33662f159f9571","version":1}]