[{"rt":20100,"stimulus":"<p>In this experiment, you will be presented with 8 scenarios, which you must read carefully.</p><p>After reading each scenario, you will be prompted two comprehension questions: a multiple choice question and a brief open answer question. You will be required to answer both questions for every scenario, meaning 16 questions in total.</p><p>To begin the experiment, hit the space bar.</p>","response":" ","trial_type":"html-keyboard-response","trial_index":0,"time_elapsed":20101,"internal_node_id":"0.0-0.0","subject_id":"597519f8262c480001bbaf8b","study_id":"6259a891582d1b81b094d7e2","session_id":"6260b932e7e7c6150f5ec9df","version":1},{"rt":83830,"response":{"P0_Q0":null,"multiQuestion":"sincere","Explanation":"Olivia would have taken her friend's comment at face value"},"accuracy":[],"embed_level":"b","question_id":"1b","trial_type":"survey","trial_index":1,"time_elapsed":103973,"internal_node_id":"0.0-1.0-0.0-0.0","subject_id":"597519f8262c480001bbaf8b","study_id":"6259a891582d1b81b094d7e2","session_id":"6260b932e7e7c6150f5ec9df","version":1},{"rt":143514,"response":{"P0_Q0":null,"multiQuestion":"sincere","Explanation":"Jane would have no reason to think otherwise, seemingly Catherine did not pick up Jane's concerns"},"accuracy":[],"embed_level":"c","question_id":"2c","trial_type":"survey","trial_index":2,"time_elapsed":247512,"internal_node_id":"0.0-1.0-0.1-0.1","subject_id":"597519f8262c480001bbaf8b","study_id":"6259a891582d1b81b094d7e2","session_id":"6260b932e7e7c6150f5ec9df","version":1},{"rt":236311,"response":{"P0_Q0":null,"multiQuestion":"sincere","Explanation":"Anastasia would have tasted the salt content but apparently did not want to upset Jack.  But the use of the word 'sweet' in the text could mean a slight hint of sarcasm."},"accuracy":[],"embed_level":"a","question_id":"3a","trial_type":"survey","trial_index":3,"time_elapsed":483844,"internal_node_id":"0.0-1.0-0.2-0.2","subject_id":"597519f8262c480001bbaf8b","study_id":"6259a891582d1b81b094d7e2","session_id":"6260b932e7e7c6150f5ec9df","version":1},{"rt":50691,"response":{"P0_Q0":null,"multiQuestion":"sincere","Explanation":"Margaret was being honest I feel based on her previous experience"},"accuracy":[],"embed_level":"b","question_id":"4b","trial_type":"survey","trial_index":4,"time_elapsed":534553,"internal_node_id":"0.0-1.0-0.3-0.3","subject_id":"597519f8262c480001bbaf8b","study_id":"6259a891582d1b81b094d7e2","session_id":"6260b932e7e7c6150f5ec9df","version":1},{"rt":162469,"response":{"P0_Q0":null,"multiQuestion":"sarcastic","Explanation":"In this situation Phillip had no need to respond at all to the thank you note, why mention the jacket at all unless he was trying to make a point,"},"accuracy":[],"embed_level":"c","question_id":"5c","trial_type":"survey","trial_index":5,"time_elapsed":697036,"internal_node_id":"0.0-1.0-0.4-0.4","subject_id":"597519f8262c480001bbaf8b","study_id":"6259a891582d1b81b094d7e2","session_id":"6260b932e7e7c6150f5ec9df","version":1},{"rt":117578,"response":{"P0_Q0":null,"multiQuestion":"sincere","Explanation":"Although he witnessed the argument, David has no need to question Jeremy's sincerity"},"accuracy":[],"embed_level":"a","question_id":"6a","trial_type":"survey","trial_index":6,"time_elapsed":814628,"internal_node_id":"0.0-1.0-0.5-0.5","subject_id":"597519f8262c480001bbaf8b","study_id":"6259a891582d1b81b094d7e2","session_id":"6260b932e7e7c6150f5ec9df","version":1},{"rt":69552,"response":{"P0_Q0":null,"multiQuestion":"sincere","Explanation":"Ana had no need for sarcasm, just stating a fact."},"accuracy":[],"embed_level":"a","question_id":"7a","trial_type":"survey","trial_index":7,"time_elapsed":884196,"internal_node_id":"0.0-1.0-0.6-0.6","subject_id":"597519f8262c480001bbaf8b","study_id":"6259a891582d1b81b094d7e2","session_id":"6260b932e7e7c6150f5ec9df","version":1},{"rt":78529,"response":{"P0_Q0":null,"multiQuestion":"sincere","Explanation":"Rather than being sarcastic, May was just providing little information"},"accuracy":[],"embed_level":"b","question_id":"8b","trial_type":"survey","trial_index":8,"time_elapsed":962738,"internal_node_id":"0.0-1.0-0.7-0.7","subject_id":"597519f8262c480001bbaf8b","study_id":"6259a891582d1b81b094d7e2","session_id":"6260b932e7e7c6150f5ec9df","version":1}]