[{"rt":8850,"stimulus":"<p>In this experiment, you will be presented with 8 scenarios, which you must read carefully.</p><p>After reading each scenario, you will be prompted two comprehension questions: a multiple choice question and a brief open answer question. You will be required to answer both questions for every scenario, meaning 16 questions in total.</p><p>To begin the experiment, hit the space bar.</p>","response":" ","trial_type":"html-keyboard-response","trial_index":0,"time_elapsed":8853,"internal_node_id":"0.0-0.0","subject_id":"5d4345e9be616d0001f786cd","study_id":"6259a891582d1b81b094d7e2","session_id":"62606cc7a85ea6377b989260","version":1},{"rt":85103,"response":{"P0_Q0":null,"multiQuestion":"sincere","Explanation":"They're lifelong friends. So Olivia is, reasonably, going to interpret the text as sincere. "},"accuracy":[],"embed_level":"b","question_id":"1b","trial_type":"survey","trial_index":1,"time_elapsed":93996,"internal_node_id":"0.0-1.0-0.0-0.0","subject_id":"5d4345e9be616d0001f786cd","study_id":"6259a891582d1b81b094d7e2","session_id":"62606cc7a85ea6377b989260","version":1},{"rt":73906,"response":{"P0_Q0":null,"multiQuestion":"sincere","Explanation":"There's no need for Catherine to respond sarcastically. She sincerely feels like she could have done more - this is her way of stating that."},"accuracy":[],"embed_level":"c","question_id":"2c","trial_type":"survey","trial_index":2,"time_elapsed":167917,"internal_node_id":"0.0-1.0-0.1-0.1","subject_id":"5d4345e9be616d0001f786cd","study_id":"6259a891582d1b81b094d7e2","session_id":"62606cc7a85ea6377b989260","version":1},{"rt":64666,"response":{"P0_Q0":null,"multiQuestion":"sincere","Explanation":"They're best friends. Anastasia wouldn't want to hurt her friend's feelings. Jack would take this comment at face value."},"accuracy":[],"embed_level":"a","question_id":"3a","trial_type":"survey","trial_index":3,"time_elapsed":232599,"internal_node_id":"0.0-1.0-0.2-0.2","subject_id":"5d4345e9be616d0001f786cd","study_id":"6259a891582d1b81b094d7e2","session_id":"62606cc7a85ea6377b989260","version":1},{"rt":62669,"response":{"P0_Q0":null,"multiQuestion":"sarcastic","Explanation":"Julia probably doesn't know that Margaret is terrified of bulldogs. so, she's going to interpret this as sarcastic since the majority of people have said it was cute. "},"accuracy":[],"embed_level":"b","question_id":"4b","trial_type":"survey","trial_index":4,"time_elapsed":295284,"internal_node_id":"0.0-1.0-0.3-0.3","subject_id":"5d4345e9be616d0001f786cd","study_id":"6259a891582d1b81b094d7e2","session_id":"62606cc7a85ea6377b989260","version":1},{"rt":69631,"response":{"P0_Q0":null,"multiQuestion":"sincere","Explanation":"Eric (probably) wouldn't have the background to realize that there was a conflict between the magazine and the maker of the jacket, so he's going to interpret it as sincere. "},"accuracy":[],"embed_level":"c","question_id":"5c","trial_type":"survey","trial_index":5,"time_elapsed":364930,"internal_node_id":"0.0-1.0-0.4-0.4","subject_id":"5d4345e9be616d0001f786cd","study_id":"6259a891582d1b81b094d7e2","session_id":"62606cc7a85ea6377b989260","version":1},{"rt":60403,"response":{"P0_Q0":null,"multiQuestion":"sarcastic","Explanation":"David only has limited experience with Jeremy and Spencer's relationship, so he'd base his belief on that one incident. Thus he's going to see this as sarcastic. "},"accuracy":[],"embed_level":"a","question_id":"6a","trial_type":"survey","trial_index":6,"time_elapsed":425349,"internal_node_id":"0.0-1.0-0.5-0.5","subject_id":"5d4345e9be616d0001f786cd","study_id":"6259a891582d1b81b094d7e2","session_id":"62606cc7a85ea6377b989260","version":1},{"rt":47372,"response":{"P0_Q0":null,"multiQuestion":"sarcastic","Explanation":"Based on Ana and James breaking up, Ken would see this comment as sarcastic since he doesn't have the full context of Ana's feelings towards James. "},"accuracy":[],"embed_level":"a","question_id":"7a","trial_type":"survey","trial_index":7,"time_elapsed":472740,"internal_node_id":"0.0-1.0-0.6-0.6","subject_id":"5d4345e9be616d0001f786cd","study_id":"6259a891582d1b81b094d7e2","session_id":"62606cc7a85ea6377b989260","version":1},{"rt":61380,"response":{"P0_Q0":null,"multiQuestion":"sincere","Explanation":"Without the context of knowing about May's feelings about Kate and how they changed, Elizabeth is going to believe that May really did believe the trip was nice. "},"accuracy":[],"embed_level":"b","question_id":"8b","trial_type":"survey","trial_index":8,"time_elapsed":534138,"internal_node_id":"0.0-1.0-0.7-0.7","subject_id":"5d4345e9be616d0001f786cd","study_id":"6259a891582d1b81b094d7e2","session_id":"62606cc7a85ea6377b989260","version":1}]