[{"rt":10295,"stimulus":"<p>In this experiment, you will be presented with 8 scenarios, which you must read carefully.</p><p>After reading each scenario, you will be prompted two comprehension questions: a multiple choice question and a brief open answer question. You will be required to answer both questions for every scenario, meaning 16 questions in total.</p><p>To begin the experiment, hit the space bar.</p>","response":" ","trial_type":"html-keyboard-response","trial_index":0,"time_elapsed":10299,"internal_node_id":"0.0-0.0","subject_id":"5c7d4bd96babcb000184fe7e","study_id":"6259a891582d1b81b094d7e2","session_id":"62606c2bc3e72ad8d029f991","version":1},{"rt":42206,"response":{"P0_Q0":null,"multiQuestion":"sincere","Explanation":"Shes not being sarcastic shes just trying to be polite"},"accuracy":[],"embed_level":"b","question_id":"1b","trial_type":"survey","trial_index":1,"time_elapsed":52580,"internal_node_id":"0.0-1.0-0.0-0.0","subject_id":"5c7d4bd96babcb000184fe7e","study_id":"6259a891582d1b81b094d7e2","session_id":"62606c2bc3e72ad8d029f991","version":1},{"rt":104205,"response":{"P0_Q0":null,"multiQuestion":"sincere","Explanation":"Shes been trying to get better in the gym so it makes sense"},"accuracy":[],"embed_level":"c","question_id":"2c","trial_type":"survey","trial_index":2,"time_elapsed":156812,"internal_node_id":"0.0-1.0-0.1-0.1","subject_id":"5c7d4bd96babcb000184fe7e","study_id":"6259a891582d1b81b094d7e2","session_id":"62606c2bc3e72ad8d029f991","version":1},{"rt":38342,"response":{"P0_Q0":null,"multiQuestion":"sincere","Explanation":"if he doesnt know that he made mistakes he will think its sincere"},"accuracy":[],"embed_level":"a","question_id":"3a","trial_type":"survey","trial_index":3,"time_elapsed":195185,"internal_node_id":"0.0-1.0-0.2-0.2","subject_id":"5c7d4bd96babcb000184fe7e","study_id":"6259a891582d1b81b094d7e2","session_id":"62606c2bc3e72ad8d029f991","version":1},{"rt":29744,"response":{"P0_Q0":null,"multiQuestion":"sincere","Explanation":"Theres no indication that its a joke or sarcasm"},"accuracy":[],"embed_level":"b","question_id":"4b","trial_type":"survey","trial_index":4,"time_elapsed":224964,"internal_node_id":"0.0-1.0-0.3-0.3","subject_id":"5c7d4bd96babcb000184fe7e","study_id":"6259a891582d1b81b094d7e2","session_id":"62606c2bc3e72ad8d029f991","version":1},{"rt":54513,"response":{"P0_Q0":null,"multiQuestion":"sarcastic","Explanation":"If eric knows about the feud then he will realise its sarcastic"},"accuracy":[],"embed_level":"c","question_id":"5c","trial_type":"survey","trial_index":5,"time_elapsed":279506,"internal_node_id":"0.0-1.0-0.4-0.4","subject_id":"5c7d4bd96babcb000184fe7e","study_id":"6259a891582d1b81b094d7e2","session_id":"62606c2bc3e72ad8d029f991","version":1},{"rt":35853,"response":{"P0_Q0":null,"multiQuestion":"sincere","Explanation":"He might think jeremy isnt angry about the fight anymore"},"accuracy":[],"embed_level":"a","question_id":"6a","trial_type":"survey","trial_index":6,"time_elapsed":315397,"internal_node_id":"0.0-1.0-0.5-0.5","subject_id":"5c7d4bd96babcb000184fe7e","study_id":"6259a891582d1b81b094d7e2","session_id":"62606c2bc3e72ad8d029f991","version":1},{"rt":45005,"response":{"P0_Q0":null,"multiQuestion":"sarcastic","Explanation":"he might think its sarcastic because he knows they had a bad breakuo"},"accuracy":[],"embed_level":"a","question_id":"7a","trial_type":"survey","trial_index":7,"time_elapsed":360467,"internal_node_id":"0.0-1.0-0.6-0.6","subject_id":"5c7d4bd96babcb000184fe7e","study_id":"6259a891582d1b81b094d7e2","session_id":"62606c2bc3e72ad8d029f991","version":1},{"rt":45733,"response":{"P0_Q0":null,"multiQuestion":"sincere","Explanation":"She wouldnt be able to see her face or hear her tone so it would seem genuine"},"accuracy":[],"embed_level":"b","question_id":"8b","trial_type":"survey","trial_index":8,"time_elapsed":406230,"internal_node_id":"0.0-1.0-0.7-0.7","subject_id":"5c7d4bd96babcb000184fe7e","study_id":"6259a891582d1b81b094d7e2","session_id":"62606c2bc3e72ad8d029f991","version":1}]