[{"rt":9158,"stimulus":"<p>In this experiment, you will be presented with 8 scenarios, which you must read carefully.</p><p>After reading each scenario, you will be prompted two comprehension questions: a multiple choice question and a brief open answer question. You will be required to answer both questions for every scenario, meaning 16 questions in total.</p><p>To begin the experiment, hit the space bar.</p>","response":" ","trial_type":"html-keyboard-response","trial_index":0,"time_elapsed":9163,"internal_node_id":"0.0-0.0","subject_id":"558bb476fdf99b21155f2dbf","study_id":"6259a891582d1b81b094d7e2","session_id":"6260b956bbc5269d6cf29c69","version":0},{"rt":158751,"response":{"P0_Q0":null,"multiQuestion":"sincere","Explanation":"I think as old friends Alice would want Olivia to be happy and may have decided that imitation is the sincerest form of flattery"},"accuracy":[],"embed_level":"c","question_id":"1c","trial_type":"survey","trial_index":1,"time_elapsed":167936,"internal_node_id":"0.0-1.0-0.0-0.0","subject_id":"558bb476fdf99b21155f2dbf","study_id":"6259a891582d1b81b094d7e2","session_id":"6260b956bbc5269d6cf29c69","version":0},{"rt":97338,"response":{"P0_Q0":null,"multiQuestion":"sincere","Explanation":"She's hit a PR which would be helping her through her pain."},"accuracy":[],"embed_level":"a","question_id":"2a","trial_type":"survey","trial_index":2,"time_elapsed":265296,"internal_node_id":"0.0-1.0-0.1-0.1","subject_id":"558bb476fdf99b21155f2dbf","study_id":"6259a891582d1b81b094d7e2","session_id":"6260b956bbc5269d6cf29c69","version":0},{"rt":88427,"response":{"P0_Q0":null,"multiQuestion":"sarcastic","Explanation":"I think the word \"sweet\" applied to Jack who has sent a salty cake, is pretty sarcastic!"},"accuracy":[],"embed_level":"c","question_id":"3c","trial_type":"survey","trial_index":3,"time_elapsed":353741,"internal_node_id":"0.0-1.0-0.2-0.2","subject_id":"558bb476fdf99b21155f2dbf","study_id":"6259a891582d1b81b094d7e2","session_id":"6260b956bbc5269d6cf29c69","version":0},{"rt":39404,"response":{"P0_Q0":null,"multiQuestion":"sarcastic","Explanation":"No-one can imagine that someone would not like their dog."},"accuracy":[],"embed_level":"a","question_id":"4a","trial_type":"survey","trial_index":4,"time_elapsed":393156,"internal_node_id":"0.0-1.0-0.3-0.3","subject_id":"558bb476fdf99b21155f2dbf","study_id":"6259a891582d1b81b094d7e2","session_id":"6260b956bbc5269d6cf29c69","version":0},{"rt":97771,"response":{"P0_Q0":null,"multiQuestion":"sarcastic","Explanation":"There would have been clues that the jacket was not admired.  "},"accuracy":[],"embed_level":"b","question_id":"5b","trial_type":"survey","trial_index":5,"time_elapsed":490945,"internal_node_id":"0.0-1.0-0.4-0.4","subject_id":"558bb476fdf99b21155f2dbf","study_id":"6259a891582d1b81b094d7e2","session_id":"6260b956bbc5269d6cf29c69","version":0},{"rt":104092,"response":{"P0_Q0":null,"multiQuestion":"sincere","Explanation":"The arguments would be everyday and unremarkable to the brothers and they would be surprised when others took them more seriously. "},"accuracy":[],"embed_level":"c","question_id":"6c","trial_type":"survey","trial_index":6,"time_elapsed":595042,"internal_node_id":"0.0-1.0-0.5-0.5","subject_id":"558bb476fdf99b21155f2dbf","study_id":"6259a891582d1b81b094d7e2","session_id":"6260b956bbc5269d6cf29c69","version":0},{"rt":124099,"response":{"P0_Q0":null,"multiQuestion":"sincere","Explanation":"Borderline but if she felt otherwise she could have said so"},"accuracy":[],"embed_level":"b","question_id":"7b","trial_type":"survey","trial_index":7,"time_elapsed":719167,"internal_node_id":"0.0-1.0-0.6-0.6","subject_id":"558bb476fdf99b21155f2dbf","study_id":"6259a891582d1b81b094d7e2","session_id":"6260b956bbc5269d6cf29c69","version":0},{"rt":127399,"response":{"P0_Q0":null,"multiQuestion":"sarcastic","Explanation":"It's a very restrained comment to make after several weeks together and she may have had wind that something was up,"},"accuracy":[],"embed_level":"a","question_id":"8a","trial_type":"survey","trial_index":8,"time_elapsed":846579,"internal_node_id":"0.0-1.0-0.7-0.7","subject_id":"558bb476fdf99b21155f2dbf","study_id":"6259a891582d1b81b094d7e2","session_id":"6260b956bbc5269d6cf29c69","version":0}]