[{"rt":20693,"stimulus":"<p>In this experiment, you will be presented with 8 scenarios, which you must read carefully.</p><p>After reading each scenario, you will be prompted two comprehension questions: a multiple choice question and a brief open answer question. You will be required to answer both questions for every scenario, meaning 16 questions in total.</p><p>To begin the experiment, hit the space bar.</p>","response":" ","trial_type":"html-keyboard-response","trial_index":0,"time_elapsed":20696,"internal_node_id":"0.0-0.0","subject_id":"5f2d433ed8690b039b935138","study_id":"6259a891582d1b81b094d7e2","session_id":"62606d3b46536bd054af60fa","version":0},{"rt":117863,"response":{"P0_Q0":null,"multiQuestion":"sincere","Explanation":"they are very close friends and Olivia wouldn't expect sarcasm from Alice"},"accuracy":[],"embed_level":"c","question_id":"1c","trial_type":"survey","trial_index":1,"time_elapsed":138624,"internal_node_id":"0.0-1.0-0.0-0.0","subject_id":"5f2d433ed8690b039b935138","study_id":"6259a891582d1b81b094d7e2","session_id":"62606d3b46536bd054af60fa","version":0},{"rt":29288,"response":{"P0_Q0":null,"multiQuestion":"sincere","Explanation":"she is positive in her attitude"},"accuracy":[],"embed_level":"a","question_id":"2a","trial_type":"survey","trial_index":2,"time_elapsed":167927,"internal_node_id":"0.0-1.0-0.1-0.1","subject_id":"5f2d433ed8690b039b935138","study_id":"6259a891582d1b81b094d7e2","session_id":"62606d3b46536bd054af60fa","version":0},{"rt":70020,"response":{"P0_Q0":null,"multiQuestion":"sarcastic","Explanation":"Jack knows he is bad at cooking and as his best friend Anastasia would know this also"},"accuracy":[],"embed_level":"c","question_id":"3c","trial_type":"survey","trial_index":3,"time_elapsed":237972,"internal_node_id":"0.0-1.0-0.2-0.2","subject_id":"5f2d433ed8690b039b935138","study_id":"6259a891582d1b81b094d7e2","session_id":"62606d3b46536bd054af60fa","version":0},{"rt":42663,"response":{"P0_Q0":null,"multiQuestion":"sarcastic","Explanation":"the usual response is that the dog is cute so Julia probably thinks margaret is joking"},"accuracy":[],"embed_level":"a","question_id":"4a","trial_type":"survey","trial_index":4,"time_elapsed":280658,"internal_node_id":"0.0-1.0-0.3-0.3","subject_id":"5f2d433ed8690b039b935138","study_id":"6259a891582d1b81b094d7e2","session_id":"62606d3b46536bd054af60fa","version":0},{"rt":61532,"response":{"P0_Q0":null,"multiQuestion":"sincere","Explanation":"in such an environment you would expect a professional response"},"accuracy":[],"embed_level":"b","question_id":"5b","trial_type":"survey","trial_index":5,"time_elapsed":342214,"internal_node_id":"0.0-1.0-0.4-0.4","subject_id":"5f2d433ed8690b039b935138","study_id":"6259a891582d1b81b094d7e2","session_id":"62606d3b46536bd054af60fa","version":0},{"rt":84774,"response":{"P0_Q0":null,"multiQuestion":"sarcastic","Explanation":"as someone who doesn't know the brothers that well and have only had one interaction which was a fght"},"accuracy":[],"embed_level":"c","question_id":"6c","trial_type":"survey","trial_index":6,"time_elapsed":427013,"internal_node_id":"0.0-1.0-0.5-0.5","subject_id":"5f2d433ed8690b039b935138","study_id":"6259a891582d1b81b094d7e2","session_id":"62606d3b46536bd054af60fa","version":0},{"rt":41753,"response":{"P0_Q0":null,"multiQuestion":"sincere","Explanation":"she could be honest if she thought he was a bad person"},"accuracy":[],"embed_level":"b","question_id":"7b","trial_type":"survey","trial_index":7,"time_elapsed":468788,"internal_node_id":"0.0-1.0-0.6-0.6","subject_id":"5f2d433ed8690b039b935138","study_id":"6259a891582d1b81b094d7e2","session_id":"62606d3b46536bd054af60fa","version":0},{"rt":51465,"response":{"P0_Q0":null,"multiQuestion":"sincere","Explanation":"i expect she thought it was sincere but perhaps not her true feelings"},"accuracy":[],"embed_level":"a","question_id":"8a","trial_type":"survey","trial_index":8,"time_elapsed":520280,"internal_node_id":"0.0-1.0-0.7-0.7","subject_id":"5f2d433ed8690b039b935138","study_id":"6259a891582d1b81b094d7e2","session_id":"62606d3b46536bd054af60fa","version":0}]