[{"rt":9277,"stimulus":"<p>In this experiment, you will be presented with 8 scenarios, which you must read carefully.</p><p>After reading each scenario, you will be prompted two comprehension questions: a multiple choice question and a brief open answer question. You will be required to answer both questions for every scenario, meaning 16 questions in total.</p><p>To begin the experiment, hit the space bar.</p>","response":" ","trial_type":"html-keyboard-response","trial_index":0,"time_elapsed":9283,"internal_node_id":"0.0-0.0","subject_id":"5dd6abf622749763a10324ec","study_id":"6259a891582d1b81b094d7e2","session_id":"62606d286da983dcab5737a2","version":0},{"rt":176204,"response":{"P0_Q0":null,"multiQuestion":"sincere","Explanation":"it comes off as a sincere compliment, not a backhanded one, as its to the point with no unnecessary words."},"accuracy":[],"embed_level":"c","question_id":"1c","trial_type":"survey","trial_index":1,"time_elapsed":185660,"internal_node_id":"0.0-1.0-0.0-0.0","subject_id":"5dd6abf622749763a10324ec","study_id":"6259a891582d1b81b094d7e2","session_id":"62606d286da983dcab5737a2","version":0},{"rt":81852,"response":{"P0_Q0":null,"multiQuestion":"sincere","Explanation":"using the word 'pumped' adds sincerity to the message, it doesn't sound like a joke"},"accuracy":[],"embed_level":"a","question_id":"2a","trial_type":"survey","trial_index":2,"time_elapsed":267561,"internal_node_id":"0.0-1.0-0.1-0.1","subject_id":"5dd6abf622749763a10324ec","study_id":"6259a891582d1b81b094d7e2","session_id":"62606d286da983dcab5737a2","version":0},{"rt":157767,"response":{"P0_Q0":null,"multiQuestion":"sarcastic","Explanation":"saying 'sweet' alludes to the mix-up between the salt and the sugar"},"accuracy":[],"embed_level":"c","question_id":"3c","trial_type":"survey","trial_index":3,"time_elapsed":425401,"internal_node_id":"0.0-1.0-0.2-0.2","subject_id":"5dd6abf622749763a10324ec","study_id":"6259a891582d1b81b094d7e2","session_id":"62606d286da983dcab5737a2","version":0},{"rt":72717,"response":{"P0_Q0":null,"multiQuestion":"sincere","Explanation":"It's a direct response, there is no reason to interpret it as anything other than sincere, especially given Margaret's opinion on dogs and bulldogs specifically."},"accuracy":[],"embed_level":"a","question_id":"4a","trial_type":"survey","trial_index":4,"time_elapsed":498213,"internal_node_id":"0.0-1.0-0.3-0.3","subject_id":"5dd6abf622749763a10324ec","study_id":"6259a891582d1b81b094d7e2","session_id":"62606d286da983dcab5737a2","version":0},{"rt":50933,"response":{"P0_Q0":null,"multiQuestion":"sincere","Explanation":"Phillip probably wore it to stand out and make a statement, so would welcome the compliment."},"accuracy":[],"embed_level":"b","question_id":"5b","trial_type":"survey","trial_index":5,"time_elapsed":549198,"internal_node_id":"0.0-1.0-0.4-0.4","subject_id":"5dd6abf622749763a10324ec","study_id":"6259a891582d1b81b094d7e2","session_id":"62606d286da983dcab5737a2","version":0},{"rt":52848,"response":{"P0_Q0":null,"multiQuestion":"sarcastic","Explanation":"David has only seen the confrontation between the brothers, not any of the good times they have spent with each other."},"accuracy":[],"embed_level":"c","question_id":"6c","trial_type":"survey","trial_index":6,"time_elapsed":602103,"internal_node_id":"0.0-1.0-0.5-0.5","subject_id":"5dd6abf622749763a10324ec","study_id":"6259a891582d1b81b094d7e2","session_id":"62606d286da983dcab5737a2","version":0},{"rt":51855,"response":{"P0_Q0":null,"multiQuestion":"sincere","Explanation":"There is no reason to lie to a third party about her feelings towards James, so it would not be taken as anything other than sincere."},"accuracy":[],"embed_level":"b","question_id":"7b","trial_type":"survey","trial_index":7,"time_elapsed":654004,"internal_node_id":"0.0-1.0-0.6-0.6","subject_id":"5dd6abf622749763a10324ec","study_id":"6259a891582d1b81b094d7e2","session_id":"62606d286da983dcab5737a2","version":0},{"rt":74090,"response":{"P0_Q0":null,"multiQuestion":"sincere","Explanation":"It's over text so maybe they wouldn't have gone into detail on a text."},"accuracy":[],"embed_level":"a","question_id":"8a","trial_type":"survey","trial_index":8,"time_elapsed":728141,"internal_node_id":"0.0-1.0-0.7-0.7","subject_id":"5dd6abf622749763a10324ec","study_id":"6259a891582d1b81b094d7e2","session_id":"62606d286da983dcab5737a2","version":0}]