[{"rt":124599,"stimulus":"<p>In this experiment, you will be presented with 8 scenarios, which you must read carefully.</p><p>After reading each scenario, you will be prompted two comprehension questions: a multiple choice question and a brief open answer question. You will be required to answer both questions for every scenario, meaning 16 questions in total.</p><p>To begin the experiment, hit the space bar.</p>","response":" ","trial_type":"html-keyboard-response","trial_index":0,"time_elapsed":124606,"internal_node_id":"0.0-0.0","subject_id":"5ec6d054e1f1a71078cfbcda","study_id":"6259a891582d1b81b094d7e2","session_id":"6260bb969ab009c1d895c902","version":1},{"rt":61451,"response":{"P0_Q0":null,"multiQuestion":"sarcastic","Explanation":"She is being sarcastic because she has the same hair style"},"accuracy":[],"embed_level":"b","question_id":"1b","trial_type":"survey","trial_index":1,"time_elapsed":186089,"internal_node_id":"0.0-1.0-0.0-0.0","subject_id":"5ec6d054e1f1a71078cfbcda","study_id":"6259a891582d1b81b094d7e2","session_id":"6260bb969ab009c1d895c902","version":1},{"rt":80709,"response":{"P0_Q0":null,"multiQuestion":"sincere","Explanation":"She sounded more concerned than anything"},"accuracy":[],"embed_level":"c","question_id":"2c","trial_type":"survey","trial_index":2,"time_elapsed":266806,"internal_node_id":"0.0-1.0-0.1-0.1","subject_id":"5ec6d054e1f1a71078cfbcda","study_id":"6259a891582d1b81b094d7e2","session_id":"6260bb969ab009c1d895c902","version":1},{"rt":69843,"response":{"P0_Q0":null,"multiQuestion":"sincere","Explanation":"Does not sound like sarcasm, it just seems more like she is being thankful"},"accuracy":[],"embed_level":"a","question_id":"3a","trial_type":"survey","trial_index":3,"time_elapsed":336660,"internal_node_id":"0.0-1.0-0.2-0.2","subject_id":"5ec6d054e1f1a71078cfbcda","study_id":"6259a891582d1b81b094d7e2","session_id":"6260bb969ab009c1d895c902","version":1},{"rt":53978,"response":{"P0_Q0":null,"multiQuestion":"sincere","Explanation":"She had a bag experience with this breed, so naturally is scared of it."},"accuracy":[],"embed_level":"b","question_id":"4b","trial_type":"survey","trial_index":4,"time_elapsed":390649,"internal_node_id":"0.0-1.0-0.3-0.3","subject_id":"5ec6d054e1f1a71078cfbcda","study_id":"6259a891582d1b81b094d7e2","session_id":"6260bb969ab009c1d895c902","version":1},{"rt":91573,"response":{"P0_Q0":null,"multiQuestion":"sarcastic","Explanation":"He did not like the jacket with his outfit based on that i would say he is being sarcastic."},"accuracy":[],"embed_level":"c","question_id":"5c","trial_type":"survey","trial_index":5,"time_elapsed":482236,"internal_node_id":"0.0-1.0-0.4-0.4","subject_id":"5ec6d054e1f1a71078cfbcda","study_id":"6259a891582d1b81b094d7e2","session_id":"6260bb969ab009c1d895c902","version":1},{"rt":65998,"response":{"P0_Q0":null,"multiQuestion":"sincere","Explanation":"Seems like he loves his brother"},"accuracy":[],"embed_level":"a","question_id":"6a","trial_type":"survey","trial_index":6,"time_elapsed":548245,"internal_node_id":"0.0-1.0-0.5-0.5","subject_id":"5ec6d054e1f1a71078cfbcda","study_id":"6259a891582d1b81b094d7e2","session_id":"6260bb969ab009c1d895c902","version":1},{"rt":41895,"response":{"P0_Q0":null,"multiQuestion":"sincere","Explanation":"Seems to still like James"},"accuracy":[],"embed_level":"a","question_id":"7a","trial_type":"survey","trial_index":7,"time_elapsed":590151,"internal_node_id":"0.0-1.0-0.6-0.6","subject_id":"5ec6d054e1f1a71078cfbcda","study_id":"6259a891582d1b81b094d7e2","session_id":"6260bb969ab009c1d895c902","version":1},{"rt":90170,"response":{"P0_Q0":null,"multiQuestion":"sincere","Explanation":"Does not sound like she is being sarcastic, she enjoyed the trip until a point."},"accuracy":[],"embed_level":"b","question_id":"8b","trial_type":"survey","trial_index":8,"time_elapsed":680332,"internal_node_id":"0.0-1.0-0.7-0.7","subject_id":"5ec6d054e1f1a71078cfbcda","study_id":"6259a891582d1b81b094d7e2","session_id":"6260bb969ab009c1d895c902","version":1}]