[{"rt":14631,"stimulus":"<p>In this experiment, you will be presented with 8 scenarios, which you must read carefully.</p><p>After reading each scenario, you will be prompted two comprehension questions: a multiple choice question and a brief open answer question. You will be required to answer both questions for every scenario, meaning 16 questions in total.</p><p>To begin the experiment, hit the space bar.</p>","response":" ","trial_type":"html-keyboard-response","trial_index":0,"time_elapsed":14633,"internal_node_id":"0.0-0.0","subject_id":"5f7aaea6bf94dd717b471063","study_id":"6259a891582d1b81b094d7e2","session_id":"6260b8f84bd637d7d267c678","version":1},{"rt":171636,"response":{"P0_Q0":null,"multiQuestion":"sincere","Explanation":"I don't think Alice meant to be sarcastic and was just saying what she thought Olivia would want to hear. I don't feel there is any indication of sarcasm. "},"accuracy":[],"embed_level":"b","question_id":"1b","trial_type":"survey","trial_index":1,"time_elapsed":186331,"internal_node_id":"0.0-1.0-0.0-0.0","subject_id":"5f7aaea6bf94dd717b471063","study_id":"6259a891582d1b81b094d7e2","session_id":"6260b8f84bd637d7d267c678","version":1},{"rt":118174,"response":{"P0_Q0":null,"multiQuestion":"sincere","Explanation":"As shes knows the backstory i dont thinks she would views this as sarcastic."},"accuracy":[],"embed_level":"c","question_id":"2c","trial_type":"survey","trial_index":2,"time_elapsed":304522,"internal_node_id":"0.0-1.0-0.1-0.1","subject_id":"5f7aaea6bf94dd717b471063","study_id":"6259a891582d1b81b094d7e2","session_id":"6260b8f84bd637d7d267c678","version":1},{"rt":66661,"response":{"P0_Q0":null,"multiQuestion":"sarcastic","Explanation":"She is making a joke about the lack of sugar in the cake"},"accuracy":[],"embed_level":"a","question_id":"3a","trial_type":"survey","trial_index":3,"time_elapsed":371209,"internal_node_id":"0.0-1.0-0.2-0.2","subject_id":"5f7aaea6bf94dd717b471063","study_id":"6259a891582d1b81b094d7e2","session_id":"6260b8f84bd637d7d267c678","version":1},{"rt":58446,"response":{"P0_Q0":null,"multiQuestion":"sarcastic","Explanation":"She is jus joking as she personally doesn't like dogs."},"accuracy":[],"embed_level":"b","question_id":"4b","trial_type":"survey","trial_index":4,"time_elapsed":429682,"internal_node_id":"0.0-1.0-0.3-0.3","subject_id":"5f7aaea6bf94dd717b471063","study_id":"6259a891582d1b81b094d7e2","session_id":"6260b8f84bd637d7d267c678","version":1},{"rt":112744,"response":{"P0_Q0":null,"multiQuestion":"sarcastic","Explanation":"He clearly wasn't being truthful. However i found the situation rather unbelievable.   "},"accuracy":[],"embed_level":"c","question_id":"5c","trial_type":"survey","trial_index":5,"time_elapsed":542446,"internal_node_id":"0.0-1.0-0.4-0.4","subject_id":"5f7aaea6bf94dd717b471063","study_id":"6259a891582d1b81b094d7e2","session_id":"6260b8f84bd637d7d267c678","version":1},{"rt":81962,"response":{"P0_Q0":null,"multiQuestion":"sincere","Explanation":"I don't think they would understand the concept of sarcasm at this age."},"accuracy":[],"embed_level":"a","question_id":"6a","trial_type":"survey","trial_index":6,"time_elapsed":624429,"internal_node_id":"0.0-1.0-0.5-0.5","subject_id":"5f7aaea6bf94dd717b471063","study_id":"6259a891582d1b81b094d7e2","session_id":"6260b8f84bd637d7d267c678","version":1},{"rt":90628,"response":{"P0_Q0":null,"multiQuestion":"sincere","Explanation":"She does not give enough detail to appear sarcastic."},"accuracy":[],"embed_level":"a","question_id":"7a","trial_type":"survey","trial_index":7,"time_elapsed":715077,"internal_node_id":"0.0-1.0-0.6-0.6","subject_id":"5f7aaea6bf94dd717b471063","study_id":"6259a891582d1b81b094d7e2","session_id":"6260b8f84bd637d7d267c678","version":1},{"rt":137416,"response":{"P0_Q0":null,"multiQuestion":"sincere","Explanation":"I think she would of questioned the lack of detail. However lack of detail is not an indicator that the text was meant to be sarcastic. "},"accuracy":[],"embed_level":"b","question_id":"8b","trial_type":"survey","trial_index":8,"time_elapsed":852517,"internal_node_id":"0.0-1.0-0.7-0.7","subject_id":"5f7aaea6bf94dd717b471063","study_id":"6259a891582d1b81b094d7e2","session_id":"6260b8f84bd637d7d267c678","version":1}]