[{"rt":454192,"stimulus":"<p>In this experiment, you will be presented with 8 scenarios, which you must read carefully.</p><p>After reading each scenario, you will be prompted two comprehension questions: a multiple choice question and a brief open answer question. You will be required to answer both questions for every scenario, meaning 16 questions in total.</p><p>To begin the experiment, hit the space bar.</p>","response":" ","trial_type":"html-keyboard-response","trial_index":0,"time_elapsed":454196,"internal_node_id":"0.0-0.0","subject_id":"5d9029dab1a0f00017dac7b9","study_id":"6259a891582d1b81b094d7e2","session_id":"6260b90b5e764eef26ba0b7e","version":0},{"rt":181346,"response":{"P0_Q0":null,"multiQuestion":"sincere","Explanation":"Both being best friends Olivia would not do anything to make Alice feel insecure about herself. Olivia has gotten this new haircut because she is following Alice's lead unknowing what she really feels inside. So Olivia would take the reply as sincere."},"accuracy":[],"embed_level":"c","question_id":"1c","trial_type":"survey","trial_index":1,"time_elapsed":635659,"internal_node_id":"0.0-1.0-0.0-0.0","subject_id":"5d9029dab1a0f00017dac7b9","study_id":"6259a891582d1b81b094d7e2","session_id":"6260b90b5e764eef26ba0b7e","version":0},{"rt":119168,"response":{"P0_Q0":null,"multiQuestion":"sarcastic","Explanation":"Jane is worried for Catherine and the fact that in Catherine's reply she used a hyperbole, edges on the idea that Jane would take the message more sarcastically.  "},"accuracy":[],"embed_level":"a","question_id":"2a","trial_type":"survey","trial_index":2,"time_elapsed":754870,"internal_node_id":"0.0-1.0-0.1-0.1","subject_id":"5d9029dab1a0f00017dac7b9","study_id":"6259a891582d1b81b094d7e2","session_id":"6260b90b5e764eef26ba0b7e","version":0},{"rt":86866,"response":{"P0_Q0":null,"multiQuestion":"sincere","Explanation":"Jack is unbeknownst to the fact that he messed up the cake, so he would think that the message was sincere."},"accuracy":[],"embed_level":"c","question_id":"3c","trial_type":"survey","trial_index":3,"time_elapsed":841781,"internal_node_id":"0.0-1.0-0.2-0.2","subject_id":"5d9029dab1a0f00017dac7b9","study_id":"6259a891582d1b81b094d7e2","session_id":"6260b90b5e764eef26ba0b7e","version":0},{"rt":247891,"response":{"P0_Q0":null,"multiQuestion":"sarcastic","Explanation":"This is a hard one to choose. Julia's friends think that her dog is cute, so already she has the mind set that people like her dog. For Margaret to respond with an exclamation sentence, makes it seem more sarcastic than sincere to Julia."},"accuracy":[],"embed_level":"a","question_id":"4a","trial_type":"survey","trial_index":4,"time_elapsed":1089717,"internal_node_id":"0.0-1.0-0.3-0.3","subject_id":"5d9029dab1a0f00017dac7b9","study_id":"6259a891582d1b81b094d7e2","session_id":"6260b90b5e764eef26ba0b7e","version":0},{"rt":120363,"response":{"P0_Q0":null,"multiQuestion":"sincere","Explanation":"For Eric to wear that jacket to an interview means to values it deeply. For someone to make a judgement on it he would have an automatic bias and immediately think of the comment as flattering and nice.  "},"accuracy":[],"embed_level":"b","question_id":"5b","trial_type":"survey","trial_index":5,"time_elapsed":1210129,"internal_node_id":"0.0-1.0-0.4-0.4","subject_id":"5d9029dab1a0f00017dac7b9","study_id":"6259a891582d1b81b094d7e2","session_id":"6260b90b5e764eef26ba0b7e","version":0},{"rt":143460,"response":{"P0_Q0":null,"multiQuestion":"sarcastic","Explanation":"David does not know how Jeremy and Spencer behave when they are at home. The fact that they got into a heated argument in front of him, makes him think differently of them"},"accuracy":[],"embed_level":"c","question_id":"6c","trial_type":"survey","trial_index":6,"time_elapsed":1353626,"internal_node_id":"0.0-1.0-0.5-0.5","subject_id":"5d9029dab1a0f00017dac7b9","study_id":"6259a891582d1b81b094d7e2","session_id":"6260b90b5e764eef26ba0b7e","version":0},{"rt":252340,"response":{"P0_Q0":null,"multiQuestion":"sincere","Explanation":"If they Ken knew that their relationship ended with a dramatic fight then Ken would think that Ana would have nothing good to say about James. However her response was in contrast. And I believe Ken should see that Ana has very little motive to speak good of James if they fought."},"accuracy":[],"embed_level":"b","question_id":"7b","trial_type":"survey","trial_index":7,"time_elapsed":1606005,"internal_node_id":"0.0-1.0-0.6-0.6","subject_id":"5d9029dab1a0f00017dac7b9","study_id":"6259a891582d1b81b094d7e2","session_id":"6260b90b5e764eef26ba0b7e","version":0},{"rt":56307,"response":{"P0_Q0":null,"multiQuestion":"sincere","Explanation":"May kept her feelings to herself, no one knows anything."},"accuracy":[],"embed_level":"a","question_id":"8a","trial_type":"survey","trial_index":8,"time_elapsed":1662364,"internal_node_id":"0.0-1.0-0.7-0.7","subject_id":"5d9029dab1a0f00017dac7b9","study_id":"6259a891582d1b81b094d7e2","session_id":"6260b90b5e764eef26ba0b7e","version":0}]