[{"rt":25695,"stimulus":"<p>In this experiment, you will be presented with 8 scenarios, which you must read carefully.</p><p>After reading each scenario, you will be prompted two comprehension questions: a multiple choice question and a brief open answer question. You will be required to answer both questions for every scenario, meaning 16 questions in total.</p><p>To begin the experiment, hit the space bar.</p>","response":" ","trial_type":"html-keyboard-response","trial_index":0,"time_elapsed":25698,"internal_node_id":"0.0-0.0","subject_id":"5e8564ad2c33ae156b696c95","study_id":"6259a891582d1b81b094d7e2","session_id":"6260b94f6dba0e8c232b7be8","version":2},{"rt":366697,"response":{"P0_Q0":null,"multiQuestion":"sarcastic","Explanation":"Olivia knows Alice well and is aware that she doesn't like bangs."},"accuracy":[],"embed_level":"a","question_id":"1a","trial_type":"survey","trial_index":1,"time_elapsed":392470,"internal_node_id":"0.0-1.0-0.0-0.0","subject_id":"5e8564ad2c33ae156b696c95","study_id":"6259a891582d1b81b094d7e2","session_id":"6260b94f6dba0e8c232b7be8","version":2},{"rt":381615,"response":{"P0_Q0":null,"multiQuestion":"sincere","Explanation":"Jane understands that Catherine is dedicated enough to use the gym despite the back injury. Catherine feeling pumped after visiting the gym isn't unexpected."},"accuracy":[],"embed_level":"b","question_id":"2b","trial_type":"survey","trial_index":2,"time_elapsed":774130,"internal_node_id":"0.0-1.0-0.1-0.1","subject_id":"5e8564ad2c33ae156b696c95","study_id":"6259a891582d1b81b094d7e2","session_id":"6260b94f6dba0e8c232b7be8","version":2},{"rt":308359,"response":{"P0_Q0":null,"multiQuestion":"sincere","Explanation":"Jack made an honest mistake while trying his best and would be unable to interpret the text as sarcasm."},"accuracy":[],"embed_level":"b","question_id":"3b","trial_type":"survey","trial_index":3,"time_elapsed":1082516,"internal_node_id":"0.0-1.0-0.2-0.2","subject_id":"5e8564ad2c33ae156b696c95","study_id":"6259a891582d1b81b094d7e2","session_id":"6260b94f6dba0e8c232b7be8","version":2},{"rt":340139,"response":{"P0_Q0":null,"multiQuestion":"sincere","Explanation":"Julia (the new coworker) and Margaret are unfamiliar; Julia may doubt due to the dog being a puppy but would err on Margaret being sincere. If it where one of Julia's friends it may be readily read as sarcasm."},"accuracy":[],"embed_level":"c","question_id":"4c","trial_type":"survey","trial_index":4,"time_elapsed":1422698,"internal_node_id":"0.0-1.0-0.3-0.3","subject_id":"5e8564ad2c33ae156b696c95","study_id":"6259a891582d1b81b094d7e2","session_id":"6260b94f6dba0e8c232b7be8","version":2},{"rt":186998,"response":{"P0_Q0":null,"multiQuestion":"sincere","Explanation":"The ego is blind. Although there is a chance that Eric was looking for a reaction, for whatever reason, and would see it as sarcasm."},"accuracy":[],"embed_level":"a","question_id":"5a","trial_type":"survey","trial_index":5,"time_elapsed":1609725,"internal_node_id":"0.0-1.0-0.4-0.4","subject_id":"5e8564ad2c33ae156b696c95","study_id":"6259a891582d1b81b094d7e2","session_id":"6260b94f6dba0e8c232b7be8","version":2},{"rt":108319,"response":{"P0_Q0":null,"multiQuestion":"sarcastic","Explanation":"David has only seen them arguing."},"accuracy":[],"embed_level":"b","question_id":"6b","trial_type":"survey","trial_index":6,"time_elapsed":1718073,"internal_node_id":"0.0-1.0-0.5-0.5","subject_id":"5e8564ad2c33ae156b696c95","study_id":"6259a891582d1b81b094d7e2","session_id":"6260b94f6dba0e8c232b7be8","version":2},{"rt":187396,"response":{"P0_Q0":null,"multiQuestion":"sincere","Explanation":"\"What she really thinks\" suggest that Ken is looking for an alternative to their currently held perspective. Alternatively, it's been long enough that Ken would see it as sincere and then remind Ana about the dramatic fight."},"accuracy":[],"embed_level":"c","question_id":"7c","trial_type":"survey","trial_index":7,"time_elapsed":1905501,"internal_node_id":"0.0-1.0-0.6-0.6","subject_id":"5e8564ad2c33ae156b696c95","study_id":"6259a891582d1b81b094d7e2","session_id":"6260b94f6dba0e8c232b7be8","version":2},{"rt":148454,"response":{"P0_Q0":null,"multiQuestion":"sincere","Explanation":"Elizabeth doesn't know what happened, although as her friend she may press for more detail after hearing that it was \"nice\"."},"accuracy":[],"embed_level":"c","question_id":"8c","trial_type":"survey","trial_index":8,"time_elapsed":2053989,"internal_node_id":"0.0-1.0-0.7-0.7","subject_id":"5e8564ad2c33ae156b696c95","study_id":"6259a891582d1b81b094d7e2","session_id":"6260b94f6dba0e8c232b7be8","version":2}]