[{"rt":17459,"stimulus":"<p>In this experiment, you will be presented with 8 scenarios, which you must read carefully.</p><p>After reading each scenario, you will be prompted two comprehension questions: a multiple choice question and a brief open answer question. You will be required to answer both questions for every scenario, meaning 16 questions in total.</p><p>To begin the experiment, hit the space bar.</p>","response":" ","trial_type":"html-keyboard-response","trial_index":0,"time_elapsed":17462,"internal_node_id":"0.0-0.0","subject_id":"55848744fdf99b574f55ada0","study_id":"6259a891582d1b81b094d7e2","session_id":"6260b92303eb5cda193594e4","version":1},{"rt":107417,"response":{"P0_Q0":null,"multiQuestion":"sincere","Explanation":"Olivia would think that Alice genuinely likes her bangs as Alice has bangs herself."},"accuracy":[],"embed_level":"b","question_id":"1b","trial_type":"survey","trial_index":1,"time_elapsed":124940,"internal_node_id":"0.0-1.0-0.0-0.0","subject_id":"55848744fdf99b574f55ada0","study_id":"6259a891582d1b81b094d7e2","session_id":"6260b92303eb5cda193594e4","version":1},{"rt":91076,"response":{"P0_Q0":null,"multiQuestion":"sarcastic","Explanation":"Jane would interpret it as sarcasm, as she obviously couldn't actually lift a cow."},"accuracy":[],"embed_level":"c","question_id":"2c","trial_type":"survey","trial_index":2,"time_elapsed":216056,"internal_node_id":"0.0-1.0-0.1-0.1","subject_id":"55848744fdf99b574f55ada0","study_id":"6259a891582d1b81b094d7e2","session_id":"6260b92303eb5cda193594e4","version":1},{"rt":74127,"response":{"P0_Q0":null,"multiQuestion":"sincere","Explanation":"Jack would interpret it as sincere as he did not know that he used sugar instead of salt."},"accuracy":[],"embed_level":"a","question_id":"3a","trial_type":"survey","trial_index":3,"time_elapsed":290229,"internal_node_id":"0.0-1.0-0.2-0.2","subject_id":"55848744fdf99b574f55ada0","study_id":"6259a891582d1b81b094d7e2","session_id":"6260b92303eb5cda193594e4","version":1},{"rt":67227,"response":{"P0_Q0":null,"multiQuestion":"sincere","Explanation":"It's too abrupt of a message to be interpreted as sincer."},"accuracy":[],"embed_level":"b","question_id":"4b","trial_type":"survey","trial_index":4,"time_elapsed":357491,"internal_node_id":"0.0-1.0-0.3-0.3","subject_id":"55848744fdf99b574f55ada0","study_id":"6259a891582d1b81b094d7e2","session_id":"6260b92303eb5cda193594e4","version":1},{"rt":67110,"response":{"P0_Q0":null,"multiQuestion":"sincere","Explanation":"He would interpret it as sincere as he did not know Phillip's history with the company."},"accuracy":[],"embed_level":"c","question_id":"5c","trial_type":"survey","trial_index":5,"time_elapsed":424640,"internal_node_id":"0.0-1.0-0.4-0.4","subject_id":"55848744fdf99b574f55ada0","study_id":"6259a891582d1b81b094d7e2","session_id":"6260b92303eb5cda193594e4","version":1},{"rt":87539,"response":{"P0_Q0":null,"multiQuestion":"sarcastic","Explanation":"David would think it was sarcastic as seen them in a heated argument."},"accuracy":[],"embed_level":"a","question_id":"6a","trial_type":"survey","trial_index":6,"time_elapsed":512217,"internal_node_id":"0.0-1.0-0.5-0.5","subject_id":"55848744fdf99b574f55ada0","study_id":"6259a891582d1b81b094d7e2","session_id":"6260b92303eb5cda193594e4","version":1},{"rt":76318,"response":{"P0_Q0":null,"multiQuestion":"sincere","Explanation":"It could be interpreted as sincere as she had been in a relationship with James."},"accuracy":[],"embed_level":"a","question_id":"7a","trial_type":"survey","trial_index":7,"time_elapsed":588570,"internal_node_id":"0.0-1.0-0.6-0.6","subject_id":"55848744fdf99b574f55ada0","study_id":"6259a891582d1b81b094d7e2","session_id":"6260b92303eb5cda193594e4","version":1},{"rt":107631,"response":{"P0_Q0":null,"multiQuestion":"sincere","Explanation":"Elizabeth did not know what had happened and so there would be no reason for her to interpret the comment as sarcastic."},"accuracy":[],"embed_level":"b","question_id":"8b","trial_type":"survey","trial_index":8,"time_elapsed":696243,"internal_node_id":"0.0-1.0-0.7-0.7","subject_id":"55848744fdf99b574f55ada0","study_id":"6259a891582d1b81b094d7e2","session_id":"6260b92303eb5cda193594e4","version":1}]