[{"rt":19504,"stimulus":"<p>In this experiment, you will be presented with 8 scenarios, which you must read carefully.</p><p>After reading each scenario, you will be prompted two comprehension questions: a multiple choice question and a brief open answer question. You will be required to answer both questions for every scenario, meaning 16 questions in total.</p><p>To begin the experiment, hit the space bar.</p>","response":" ","trial_type":"html-keyboard-response","trial_index":0,"time_elapsed":19513,"internal_node_id":"0.0-0.0","subject_id":"5e904f36cc3d6c355bbf48fa","study_id":"6259a891582d1b81b094d7e2","session_id":"6260b8fff52a0b00ec9eb262","version":0},{"rt":158946,"response":{"P0_Q0":null,"multiQuestion":"sincere","Explanation":"Given she seems unaware there's no reason to suspect sarcasm, nor would that be likely in this sentence as it'd be hurtful"},"accuracy":[],"embed_level":"c","question_id":"1c","trial_type":"survey","trial_index":1,"time_elapsed":178726,"internal_node_id":"0.0-1.0-0.0-0.0","subject_id":"5e904f36cc3d6c355bbf48fa","study_id":"6259a891582d1b81b094d7e2","session_id":"6260b8fff52a0b00ec9eb262","version":0},{"rt":86569,"response":{"P0_Q0":null,"multiQuestion":"sincere","Explanation":"Again, nothing to indicate sarcasm based on the context"},"accuracy":[],"embed_level":"a","question_id":"2a","trial_type":"survey","trial_index":2,"time_elapsed":265383,"internal_node_id":"0.0-1.0-0.1-0.1","subject_id":"5e904f36cc3d6c355bbf48fa","study_id":"6259a891582d1b81b094d7e2","session_id":"6260b8fff52a0b00ec9eb262","version":0},{"rt":147189,"response":{"P0_Q0":null,"multiQuestion":"sincere","Explanation":"Without knowing the cake is salty there's no reason to suspect the comment isn't meant as stated. Even with that knowledge it wouldn't necessarily be sarcasm"},"accuracy":[],"embed_level":"c","question_id":"3c","trial_type":"survey","trial_index":3,"time_elapsed":412651,"internal_node_id":"0.0-1.0-0.2-0.2","subject_id":"5e904f36cc3d6c355bbf48fa","study_id":"6259a891582d1b81b094d7e2","session_id":"6260b8fff52a0b00ec9eb262","version":0},{"rt":98664,"response":{"P0_Q0":null,"multiQuestion":"sincere","Explanation":"Again, no reason to suspect sarcasm, nor is it intended as"},"accuracy":[],"embed_level":"a","question_id":"4a","trial_type":"survey","trial_index":4,"time_elapsed":511404,"internal_node_id":"0.0-1.0-0.3-0.3","subject_id":"5e904f36cc3d6c355bbf48fa","study_id":"6259a891582d1b81b094d7e2","session_id":"6260b8fff52a0b00ec9eb262","version":0},{"rt":194907,"response":{"P0_Q0":null,"multiQuestion":"sincere","Explanation":"The comment was intended as scorn rather than purely sarcasm but since fashion is subjective as hell and Eric likes the jacket and nobody is that much of a dick after a job interview I'd assume he'd interpret it sincerely"},"accuracy":[],"embed_level":"b","question_id":"5b","trial_type":"survey","trial_index":5,"time_elapsed":706396,"internal_node_id":"0.0-1.0-0.4-0.4","subject_id":"5e904f36cc3d6c355bbf48fa","study_id":"6259a891582d1b81b094d7e2","session_id":"6260b8fff52a0b00ec9eb262","version":0},{"rt":95451,"response":{"P0_Q0":null,"multiQuestion":"sincere","Explanation":"I don't know how old people are in elementary school but presumably below the age where you'd expect an understanding of sarcasm"},"accuracy":[],"embed_level":"c","question_id":"6c","trial_type":"survey","trial_index":6,"time_elapsed":801928,"internal_node_id":"0.0-1.0-0.5-0.5","subject_id":"5e904f36cc3d6c355bbf48fa","study_id":"6259a891582d1b81b094d7e2","session_id":"6260b8fff52a0b00ec9eb262","version":0},{"rt":93188,"response":{"P0_Q0":null,"multiQuestion":"sincere","Explanation":"This one would be mostly down to the tone of delivery so since she's being genuine there's no reason to suggest it'd be interpreted as sarcastic"},"accuracy":[],"embed_level":"b","question_id":"7b","trial_type":"survey","trial_index":7,"time_elapsed":895198,"internal_node_id":"0.0-1.0-0.6-0.6","subject_id":"5e904f36cc3d6c355bbf48fa","study_id":"6259a891582d1b81b094d7e2","session_id":"6260b8fff52a0b00ec9eb262","version":0},{"rt":50314,"response":{"P0_Q0":null,"multiQuestion":"sincere","Explanation":"With no other context there's no reason to suspect sarcasm"},"accuracy":[],"embed_level":"a","question_id":"8a","trial_type":"survey","trial_index":8,"time_elapsed":945585,"internal_node_id":"0.0-1.0-0.7-0.7","subject_id":"5e904f36cc3d6c355bbf48fa","study_id":"6259a891582d1b81b094d7e2","session_id":"6260b8fff52a0b00ec9eb262","version":0}]