[{"rt":17263,"stimulus":"<p>In this experiment, you will be presented with 8 scenarios, which you must read carefully.</p><p>After reading each scenario, you will be prompted two comprehension questions: a multiple choice question and a brief open answer question. You will be required to answer both questions for every scenario, meaning 16 questions in total.</p><p>To begin the experiment, hit the space bar.</p>","response":"f11","trial_type":"html-keyboard-response","trial_index":0,"time_elapsed":17265,"internal_node_id":"0.0-0.0","subject_id":"5ce0fbdd8c6f070001bd44b8","study_id":"6259a891582d1b81b094d7e2","session_id":"6260b8efb4e3adeb0db14dc6","version":2},{"rt":84293,"response":{"P0_Q0":null,"multiQuestion":"sincere","Explanation":"because they have remained friends ,her friend must not have hurt her extremely often"},"accuracy":[],"embed_level":"a","question_id":"1a","trial_type":"survey","trial_index":1,"time_elapsed":101613,"internal_node_id":"0.0-1.0-0.0-0.0","subject_id":"5ce0fbdd8c6f070001bd44b8","study_id":"6259a891582d1b81b094d7e2","session_id":"6260b8efb4e3adeb0db14dc6","version":2},{"rt":72742,"response":{"P0_Q0":null,"multiQuestion":"sarcastic","Explanation":"because she's not able to lift a cow,it's meant for comedic effect"},"accuracy":[],"embed_level":"b","question_id":"2b","trial_type":"survey","trial_index":2,"time_elapsed":174390,"internal_node_id":"0.0-1.0-0.1-0.1","subject_id":"5ce0fbdd8c6f070001bd44b8","study_id":"6259a891582d1b81b094d7e2","session_id":"6260b8efb4e3adeb0db14dc6","version":2},{"rt":59948,"response":{"P0_Q0":null,"multiQuestion":"sincere","Explanation":"she's trying to be nice,\"aren't you so sweet!'"},"accuracy":[],"embed_level":"b","question_id":"3b","trial_type":"survey","trial_index":3,"time_elapsed":234371,"internal_node_id":"0.0-1.0-0.2-0.2","subject_id":"5ce0fbdd8c6f070001bd44b8","study_id":"6259a891582d1b81b094d7e2","session_id":"6260b8efb4e3adeb0db14dc6","version":2},{"rt":99083,"response":{"P0_Q0":null,"multiQuestion":"sincere","Explanation":"Margaret has  strong aversion to bulldogs because of a traumatic incident"},"accuracy":[],"embed_level":"c","question_id":"4c","trial_type":"survey","trial_index":4,"time_elapsed":333476,"internal_node_id":"0.0-1.0-0.3-0.3","subject_id":"5ce0fbdd8c6f070001bd44b8","study_id":"6259a891582d1b81b094d7e2","session_id":"6260b8efb4e3adeb0db14dc6","version":2},{"rt":100008,"response":{"P0_Q0":null,"multiQuestion":"sincere","Explanation":"because it was a reply to a thank you note"},"accuracy":[],"embed_level":"a","question_id":"5a","trial_type":"survey","trial_index":5,"time_elapsed":433504,"internal_node_id":"0.0-1.0-0.4-0.4","subject_id":"5ce0fbdd8c6f070001bd44b8","study_id":"6259a891582d1b81b094d7e2","session_id":"6260b8efb4e3adeb0db14dc6","version":2},{"rt":127945,"response":{"P0_Q0":null,"multiQuestion":"sincere","Explanation":"because Jeremy genuinely enjoys spending time with Spencer and thinks that he is a good person,which was probably included in the letter"},"accuracy":[],"embed_level":"b","question_id":"6b","trial_type":"survey","trial_index":6,"time_elapsed":561472,"internal_node_id":"0.0-1.0-0.5-0.5","subject_id":"5ce0fbdd8c6f070001bd44b8","study_id":"6259a891582d1b81b094d7e2","session_id":"6260b8efb4e3adeb0db14dc6","version":2},{"rt":130363,"response":{"P0_Q0":null,"multiQuestion":"sarcastic","Explanation":"because he may only know about the very dramatic fight & nothing since then"},"accuracy":[],"embed_level":"c","question_id":"7c","trial_type":"survey","trial_index":7,"time_elapsed":691851,"internal_node_id":"0.0-1.0-0.6-0.6","subject_id":"5ce0fbdd8c6f070001bd44b8","study_id":"6259a891582d1b81b094d7e2","session_id":"6260b8efb4e3adeb0db14dc6","version":2},{"rt":98523,"response":{"P0_Q0":null,"multiQuestion":"sincere","Explanation":"the trip was enjoyable up to the point of going home"},"accuracy":[],"embed_level":"c","question_id":"8c","trial_type":"survey","trial_index":8,"time_elapsed":790391,"internal_node_id":"0.0-1.0-0.7-0.7","subject_id":"5ce0fbdd8c6f070001bd44b8","study_id":"6259a891582d1b81b094d7e2","session_id":"6260b8efb4e3adeb0db14dc6","version":2}]