[{"rt":10560,"stimulus":"<p>In this experiment, you will be presented with 8 scenarios, which you must read carefully.</p><p>After reading each scenario, you will be prompted two comprehension questions: a multiple choice question and a brief open answer question. You will be required to answer both questions for every scenario, meaning 16 questions in total.</p><p>To begin the experiment, hit the space bar.</p>","response":" ","trial_type":"html-keyboard-response","trial_index":0,"time_elapsed":10587,"internal_node_id":"0.0-0.0","subject_id":"5b1505b69663ee0001463400","study_id":"6259a891582d1b81b094d7e2","session_id":"6260b9015004a38acd5bd56c","version":1},{"rt":52984,"response":{"P0_Q0":null,"multiQuestion":"sincere","Explanation":"Olivia can't read Alice's thoughts."},"accuracy":[],"embed_level":"b","question_id":"1b","trial_type":"survey","trial_index":1,"time_elapsed":63732,"internal_node_id":"0.0-1.0-0.0-0.0","subject_id":"5b1505b69663ee0001463400","study_id":"6259a891582d1b81b094d7e2","session_id":"6260b9015004a38acd5bd56c","version":1},{"rt":81347,"response":{"P0_Q0":null,"multiQuestion":"sarcastic","Explanation":"It's obvious that Catherine doesn't really believe she could lift a cow, so in that sense it's more sarcasm than seriousness."},"accuracy":[],"embed_level":"c","question_id":"2c","trial_type":"survey","trial_index":2,"time_elapsed":145121,"internal_node_id":"0.0-1.0-0.1-0.1","subject_id":"5b1505b69663ee0001463400","study_id":"6259a891582d1b81b094d7e2","session_id":"6260b9015004a38acd5bd56c","version":1},{"rt":46889,"response":{"P0_Q0":null,"multiQuestion":"sincere","Explanation":"Jack doesn't realize he used salt instead of sugar."},"accuracy":[],"embed_level":"a","question_id":"3a","trial_type":"survey","trial_index":3,"time_elapsed":192070,"internal_node_id":"0.0-1.0-0.2-0.2","subject_id":"5b1505b69663ee0001463400","study_id":"6259a891582d1b81b094d7e2","session_id":"6260b9015004a38acd5bd56c","version":1},{"rt":52251,"response":{"P0_Q0":null,"multiQuestion":"sincere","Explanation":"Most people wouldn't call someone's pet scary unless they meant it."},"accuracy":[],"embed_level":"b","question_id":"4b","trial_type":"survey","trial_index":4,"time_elapsed":244364,"internal_node_id":"0.0-1.0-0.3-0.3","subject_id":"5b1505b69663ee0001463400","study_id":"6259a891582d1b81b094d7e2","session_id":"6260b9015004a38acd5bd56c","version":1},{"rt":63409,"response":{"P0_Q0":null,"multiQuestion":"sincere","Explanation":"Eric isn't aware of the clash."},"accuracy":[],"embed_level":"c","question_id":"5c","trial_type":"survey","trial_index":5,"time_elapsed":307807,"internal_node_id":"0.0-1.0-0.4-0.4","subject_id":"5b1505b69663ee0001463400","study_id":"6259a891582d1b81b094d7e2","session_id":"6260b9015004a38acd5bd56c","version":1},{"rt":45281,"response":{"P0_Q0":null,"multiQuestion":"sarcastic","Explanation":"David knows about the fight."},"accuracy":[],"embed_level":"a","question_id":"6a","trial_type":"survey","trial_index":6,"time_elapsed":353121,"internal_node_id":"0.0-1.0-0.5-0.5","subject_id":"5b1505b69663ee0001463400","study_id":"6259a891582d1b81b094d7e2","session_id":"6260b9015004a38acd5bd56c","version":1},{"rt":38834,"response":{"P0_Q0":null,"multiQuestion":"sincere","Explanation":"People don't usually keep in contact with people they deem bad."},"accuracy":[],"embed_level":"a","question_id":"7a","trial_type":"survey","trial_index":7,"time_elapsed":391985,"internal_node_id":"0.0-1.0-0.6-0.6","subject_id":"5b1505b69663ee0001463400","study_id":"6259a891582d1b81b094d7e2","session_id":"6260b9015004a38acd5bd56c","version":1},{"rt":64957,"response":{"P0_Q0":null,"multiQuestion":"sincere","Explanation":"Elizabeth isn't aware of May's crush."},"accuracy":[],"embed_level":"b","question_id":"8b","trial_type":"survey","trial_index":8,"time_elapsed":456979,"internal_node_id":"0.0-1.0-0.7-0.7","subject_id":"5b1505b69663ee0001463400","study_id":"6259a891582d1b81b094d7e2","session_id":"6260b9015004a38acd5bd56c","version":1}]