[{"rt":1245,"stimulus":"<p>In this experiment, you will be presented with 8 scenarios, which you must read carefully.</p><p>After reading each scenario, you will be prompted two comprehension questions: a multiple choice question and a brief open answer question. You will be required to answer both questions for every scenario, meaning 16 questions in total.</p><p>To begin the experiment, hit the space bar.</p>","response":" ","trial_type":"html-keyboard-response","trial_index":0,"time_elapsed":1249,"internal_node_id":"0.0-0.0","subject_id":"5eb94fef843bd101e0ace96c","study_id":"6259a891582d1b81b094d7e2","session_id":"62606ccee67ee1e3ff7525a8","version":0},{"rt":104650,"response":{"P0_Q0":null,"multiQuestion":"sincere","Explanation":"Olivia didn't pick up on Alices frustrations, so she must have thought that the response was sincere"},"accuracy":[],"embed_level":"c","question_id":"1c","trial_type":"survey","trial_index":1,"time_elapsed":105991,"internal_node_id":"0.0-1.0-0.0-0.0","subject_id":"5eb94fef843bd101e0ace96c","study_id":"6259a891582d1b81b094d7e2","session_id":"62606ccee67ee1e3ff7525a8","version":0},{"rt":65807,"response":{"P0_Q0":null,"multiQuestion":"sarcastic","Explanation":"I thisnk the phrased used makes it clear it's sarcasm, nobody would actually lift a cow"},"accuracy":[],"embed_level":"a","question_id":"2a","trial_type":"survey","trial_index":2,"time_elapsed":171816,"internal_node_id":"0.0-1.0-0.1-0.1","subject_id":"5eb94fef843bd101e0ace96c","study_id":"6259a891582d1b81b094d7e2","session_id":"62606ccee67ee1e3ff7525a8","version":0},{"rt":67650,"response":{"P0_Q0":null,"multiQuestion":"sincere","Explanation":"It seems by the context that Jack is not aware of the mistake, so he would think the message is sincere"},"accuracy":[],"embed_level":"c","question_id":"3c","trial_type":"survey","trial_index":3,"time_elapsed":239500,"internal_node_id":"0.0-1.0-0.2-0.2","subject_id":"5eb94fef843bd101e0ace96c","study_id":"6259a891582d1b81b094d7e2","session_id":"62606ccee67ee1e3ff7525a8","version":0},{"rt":65008,"response":{"P0_Q0":null,"multiQuestion":"sincere","Explanation":"Margaret is directly expressing her fear, it would be interpreted as sincere"},"accuracy":[],"embed_level":"a","question_id":"4a","trial_type":"survey","trial_index":4,"time_elapsed":304534,"internal_node_id":"0.0-1.0-0.3-0.3","subject_id":"5eb94fef843bd101e0ace96c","study_id":"6259a891582d1b81b094d7e2","session_id":"62606ccee67ee1e3ff7525a8","version":0},{"rt":122792,"response":{"P0_Q0":null,"multiQuestion":"sincere","Explanation":"Philip didn't express any distaste to Erics style altogether, I don't beleve he would think it was sarcastic"},"accuracy":[],"embed_level":"b","question_id":"5b","trial_type":"survey","trial_index":5,"time_elapsed":427350,"internal_node_id":"0.0-1.0-0.4-0.4","subject_id":"5eb94fef843bd101e0ace96c","study_id":"6259a891582d1b81b094d7e2","session_id":"62606ccee67ee1e3ff7525a8","version":0},{"rt":99963,"response":{"P0_Q0":null,"multiQuestion":"sincere","Explanation":"Seems that it might be sincere as Jeremy seems to really like his brother"},"accuracy":[],"embed_level":"c","question_id":"6c","trial_type":"survey","trial_index":6,"time_elapsed":527336,"internal_node_id":"0.0-1.0-0.5-0.5","subject_id":"5eb94fef843bd101e0ace96c","study_id":"6259a891582d1b81b094d7e2","session_id":"62606ccee67ee1e3ff7525a8","version":0},{"rt":64413,"response":{"P0_Q0":null,"multiQuestion":"sincere","Explanation":"I think Ann thinks well of James"},"accuracy":[],"embed_level":"b","question_id":"7b","trial_type":"survey","trial_index":7,"time_elapsed":591771,"internal_node_id":"0.0-1.0-0.6-0.6","subject_id":"5eb94fef843bd101e0ace96c","study_id":"6259a891582d1b81b094d7e2","session_id":"62606ccee67ee1e3ff7525a8","version":0},{"rt":47775,"response":{"P0_Q0":null,"multiQuestion":"sarcastic","Explanation":"she made it out ncer than it was for her"},"accuracy":[],"embed_level":"a","question_id":"8a","trial_type":"survey","trial_index":8,"time_elapsed":639579,"internal_node_id":"0.0-1.0-0.7-0.7","subject_id":"5eb94fef843bd101e0ace96c","study_id":"6259a891582d1b81b094d7e2","session_id":"62606ccee67ee1e3ff7525a8","version":0}]