[{"rt":13286,"stimulus":"<p>In this experiment, you will be presented with 8 scenarios, which you must read carefully.</p><p>After reading each scenario, you will be prompted two comprehension questions: a multiple choice question and a brief open answer question. You will be required to answer both questions for every scenario, meaning 16 questions in total.</p><p>To begin the experiment, hit the space bar.</p>","response":" ","trial_type":"html-keyboard-response","trial_index":0,"time_elapsed":13288,"internal_node_id":"0.0-0.0","subject_id":"5f2bffa8d4f0d601244ab240","study_id":"6259a891582d1b81b094d7e2","session_id":"62607b617792d14e68b7a310","version":0},{"rt":168107,"response":{"P0_Q0":null,"multiQuestion":"sincere","Explanation":"I don't think alice is being sarcastic necessarily. she is being insincere as she does not really love olivia's hair and wants her to have different hair so it is a disingenuous comment rather than a sarcastic one. she probably is lying and saying she loves her hair as she doesn't want to hurt olivia's feelings"},"accuracy":[],"embed_level":"c","question_id":"1c","trial_type":"survey","trial_index":1,"time_elapsed":181441,"internal_node_id":"0.0-1.0-0.0-0.0","subject_id":"5f2bffa8d4f0d601244ab240","study_id":"6259a891582d1b81b094d7e2","session_id":"62607b617792d14e68b7a310","version":0},{"rt":98461,"response":{"P0_Q0":null,"multiQuestion":"sincere","Explanation":"catherine's message is not sarcastic as it is not mean-spirited. it is just hyperbole as although she could not literally lift a cow she is sincere in expressing how good she feels"},"accuracy":[],"embed_level":"a","question_id":"2a","trial_type":"survey","trial_index":2,"time_elapsed":279922,"internal_node_id":"0.0-1.0-0.1-0.1","subject_id":"5f2bffa8d4f0d601244ab240","study_id":"6259a891582d1b81b094d7e2","session_id":"62607b617792d14e68b7a310","version":0},{"rt":93429,"response":{"P0_Q0":null,"multiQuestion":"sarcastic","Explanation":"the text may be a joke in sarcasm saying he is sweet despite the salt. if they are long term close friends then sometimes sarcastic jokes are okay"},"accuracy":[],"embed_level":"c","question_id":"3c","trial_type":"survey","trial_index":3,"time_elapsed":373371,"internal_node_id":"0.0-1.0-0.2-0.2","subject_id":"5f2bffa8d4f0d601244ab240","study_id":"6259a891582d1b81b094d7e2","session_id":"62607b617792d14e68b7a310","version":0},{"rt":61709,"response":{"P0_Q0":null,"multiQuestion":"sincere","Explanation":"margaret is being honest about her reaction to the dog so it isnt sarcasm, julia may not react well but at least margaret is sincere"},"accuracy":[],"embed_level":"a","question_id":"4a","trial_type":"survey","trial_index":4,"time_elapsed":435099,"internal_node_id":"0.0-1.0-0.3-0.3","subject_id":"5f2bffa8d4f0d601244ab240","study_id":"6259a891582d1b81b094d7e2","session_id":"62607b617792d14e68b7a310","version":0},{"rt":66495,"response":{"P0_Q0":null,"multiQuestion":"sincere","Explanation":"eric would not have known about philip's conversation with his coworker as he was not there. so as far as eric knows the compliment is sincere"},"accuracy":[],"embed_level":"b","question_id":"5b","trial_type":"survey","trial_index":5,"time_elapsed":501612,"internal_node_id":"0.0-1.0-0.4-0.4","subject_id":"5f2bffa8d4f0d601244ab240","study_id":"6259a891582d1b81b094d7e2","session_id":"62607b617792d14e68b7a310","version":0},{"rt":54075,"response":{"P0_Q0":null,"multiQuestion":"sarcastic","Explanation":"david may think this is sarcasm as he has seen them fighting recently "},"accuracy":[],"embed_level":"c","question_id":"6c","trial_type":"survey","trial_index":6,"time_elapsed":555706,"internal_node_id":"0.0-1.0-0.5-0.5","subject_id":"5f2bffa8d4f0d601244ab240","study_id":"6259a891582d1b81b094d7e2","session_id":"62607b617792d14e68b7a310","version":0},{"rt":66707,"response":{"P0_Q0":null,"multiQuestion":"sincere","Explanation":"kevin would interpret ana's comment as sincere as she genuinely believes this and as her close friend kevin would know this"},"accuracy":[],"embed_level":"b","question_id":"7b","trial_type":"survey","trial_index":7,"time_elapsed":622433,"internal_node_id":"0.0-1.0-0.6-0.6","subject_id":"5f2bffa8d4f0d601244ab240","study_id":"6259a891582d1b81b094d7e2","session_id":"62607b617792d14e68b7a310","version":0},{"rt":119176,"response":{"P0_Q0":null,"multiQuestion":"sincere","Explanation":"Elizabeth would interpret May's text as sincere as to her knowledge may is being sincere as she did enjoy the trip despite what she has recently found out about Kate. just because she knows that kate is unavailable doesnt mean the trip was bad"},"accuracy":[],"embed_level":"a","question_id":"8a","trial_type":"survey","trial_index":8,"time_elapsed":741628,"internal_node_id":"0.0-1.0-0.7-0.7","subject_id":"5f2bffa8d4f0d601244ab240","study_id":"6259a891582d1b81b094d7e2","session_id":"62607b617792d14e68b7a310","version":0}]