[{"rt":15696,"stimulus":"<p>In this experiment, you will be presented with 8 scenarios, which you must read carefully.</p><p>After reading each scenario, you will be prompted two comprehension questions: a multiple choice question and a brief open answer question. You will be required to answer both questions for every scenario, meaning 16 questions in total.</p><p>To begin the experiment, hit the space bar.</p>","response":" ","trial_type":"html-keyboard-response","trial_index":0,"time_elapsed":15701,"internal_node_id":"0.0-0.0","subject_id":"612bdeaaaf02651ea655d21a","study_id":"6259a891582d1b81b094d7e2","session_id":"62606d121f8c29c07438d1a1","version":1},{"rt":108570,"response":{"P0_Q0":null,"multiQuestion":"sincere","Explanation":"I do not think Olivia's answer is sarcastic she is just not choosing to speak the truth."},"accuracy":[],"embed_level":"b","question_id":"1b","trial_type":"survey","trial_index":1,"time_elapsed":124412,"internal_node_id":"0.0-1.0-0.0-0.0","subject_id":"612bdeaaaf02651ea655d21a","study_id":"6259a891582d1b81b094d7e2","session_id":"62606d121f8c29c07438d1a1","version":1},{"rt":194175,"response":{"P0_Q0":null,"multiQuestion":"sincere","Explanation":"I think Catherine's message is just exaggerating how she feels. She is not being sarcastic as it is not the opposite to what she is thinking."},"accuracy":[],"embed_level":"c","question_id":"2c","trial_type":"survey","trial_index":2,"time_elapsed":318614,"internal_node_id":"0.0-1.0-0.1-0.1","subject_id":"612bdeaaaf02651ea655d21a","study_id":"6259a891582d1b81b094d7e2","session_id":"62606d121f8c29c07438d1a1","version":1},{"rt":103345,"response":{"P0_Q0":null,"multiQuestion":"sincere","Explanation":"Anastasia is not causing any harm in her comment so I feel she is being sincere. Although the cake may not be great, Anastasia may be happy with the thought that went into it."},"accuracy":[],"embed_level":"a","question_id":"3a","trial_type":"survey","trial_index":3,"time_elapsed":422006,"internal_node_id":"0.0-1.0-0.2-0.2","subject_id":"612bdeaaaf02651ea655d21a","study_id":"6259a891582d1b81b094d7e2","session_id":"62606d121f8c29c07438d1a1","version":1},{"rt":50136,"response":{"P0_Q0":null,"multiQuestion":"sincere","Explanation":"She is being honest about her thoughts towards Margaret's dog."},"accuracy":[],"embed_level":"b","question_id":"4b","trial_type":"survey","trial_index":4,"time_elapsed":472180,"internal_node_id":"0.0-1.0-0.3-0.3","subject_id":"612bdeaaaf02651ea655d21a","study_id":"6259a891582d1b81b094d7e2","session_id":"62606d121f8c29c07438d1a1","version":1},{"rt":121425,"response":{"P0_Q0":null,"multiQuestion":"sarcastic","Explanation":"assuming Eric knows some history between the magazine and fashion brand I feel that he would find it sarcastic, especially mentioning something so minor in an email after meeting face-to-face."},"accuracy":[],"embed_level":"c","question_id":"5c","trial_type":"survey","trial_index":5,"time_elapsed":593655,"internal_node_id":"0.0-1.0-0.4-0.4","subject_id":"612bdeaaaf02651ea655d21a","study_id":"6259a891582d1b81b094d7e2","session_id":"62606d121f8c29c07438d1a1","version":1},{"rt":97527,"response":{"P0_Q0":null,"multiQuestion":"sarcastic","Explanation":"He is saying the opposite to what is he thinking at the time about his brother and saying it in spite."},"accuracy":[],"embed_level":"a","question_id":"6a","trial_type":"survey","trial_index":6,"time_elapsed":691242,"internal_node_id":"0.0-1.0-0.5-0.5","subject_id":"612bdeaaaf02651ea655d21a","study_id":"6259a891582d1b81b094d7e2","session_id":"62606d121f8c29c07438d1a1","version":1},{"rt":42387,"response":{"P0_Q0":null,"multiQuestion":"sincere","Explanation":"Ana still thinks James is a good person so is just saying how she is thinking."},"accuracy":[],"embed_level":"a","question_id":"7a","trial_type":"survey","trial_index":7,"time_elapsed":733662,"internal_node_id":"0.0-1.0-0.6-0.6","subject_id":"612bdeaaaf02651ea655d21a","study_id":"6259a891582d1b81b094d7e2","session_id":"62606d121f8c29c07438d1a1","version":1},{"rt":111743,"response":{"P0_Q0":null,"multiQuestion":"sincere","Explanation":"I feel \"nice\" is a way to explain in a sincere way that the trip was just OK."},"accuracy":[],"embed_level":"b","question_id":"8b","trial_type":"survey","trial_index":8,"time_elapsed":845436,"internal_node_id":"0.0-1.0-0.7-0.7","subject_id":"612bdeaaaf02651ea655d21a","study_id":"6259a891582d1b81b094d7e2","session_id":"62606d121f8c29c07438d1a1","version":1}]