[{"rt":14113,"stimulus":"<p>In this experiment, you will be presented with 8 scenarios, which you must read carefully.</p><p>After reading each scenario, you will be prompted two comprehension questions: a multiple choice question and a brief open answer question. You will be required to answer both questions for every scenario, meaning 16 questions in total.</p><p>To begin the experiment, hit the space bar.</p>","response":" ","trial_type":"html-keyboard-response","trial_index":0,"time_elapsed":14115,"internal_node_id":"0.0-0.0","subject_id":"5af00a133606ab0001b942cd","study_id":"6259a891582d1b81b094d7e2","session_id":"62606c3148a947c4e3de7dab","version":1},{"rt":61710,"response":{"P0_Q0":null,"multiQuestion":"sincere","Explanation":"They've been friends for a long time, there's no reason for Olivia to think Alice wasn't being sincere."},"accuracy":[],"embed_level":"b","question_id":"1b","trial_type":"survey","trial_index":1,"time_elapsed":75916,"internal_node_id":"0.0-1.0-0.0-0.0","subject_id":"5af00a133606ab0001b942cd","study_id":"6259a891582d1b81b094d7e2","session_id":"62606c3148a947c4e3de7dab","version":1},{"rt":106084,"response":{"P0_Q0":null,"multiQuestion":"sincere","Explanation":"I don't think she would interpret the message as literal, but Catherine is obviously high on her achievement and I don't think it reads as sarcastic so much as exaggeration/metaphor"},"accuracy":[],"embed_level":"c","question_id":"2c","trial_type":"survey","trial_index":2,"time_elapsed":182014,"internal_node_id":"0.0-1.0-0.1-0.1","subject_id":"5af00a133606ab0001b942cd","study_id":"6259a891582d1b81b094d7e2","session_id":"62606c3148a947c4e3de7dab","version":1},{"rt":70306,"response":{"P0_Q0":null,"multiQuestion":"sincere","Explanation":"It's a kind gesture, he's never baked before, I think he would think she was not being honest to protect his feelings and show her appreciation, but not being sarcastic"},"accuracy":[],"embed_level":"a","question_id":"3a","trial_type":"survey","trial_index":3,"time_elapsed":252348,"internal_node_id":"0.0-1.0-0.2-0.2","subject_id":"5af00a133606ab0001b942cd","study_id":"6259a891582d1b81b094d7e2","session_id":"62606c3148a947c4e3de7dab","version":1},{"rt":98390,"response":{"P0_Q0":null,"multiQuestion":"sarcastic","Explanation":"Everyone else thinks the dog is cute, it's only a puppy so not generally considered scary, Julia is a new coworker so probably doesn't know Margaret's history with dogs."},"accuracy":[],"embed_level":"b","question_id":"4b","trial_type":"survey","trial_index":4,"time_elapsed":350764,"internal_node_id":"0.0-1.0-0.3-0.3","subject_id":"5af00a133606ab0001b942cd","study_id":"6259a891582d1b81b094d7e2","session_id":"62606c3148a947c4e3de7dab","version":1},{"rt":123479,"response":{"P0_Q0":null,"multiQuestion":"sincere","Explanation":"They don't know each other well, Phillip was friendly in the interview and didn't say anything then, no evidence Eric knows about Phillip and this designer"},"accuracy":[],"embed_level":"c","question_id":"5c","trial_type":"survey","trial_index":5,"time_elapsed":474269,"internal_node_id":"0.0-1.0-0.4-0.4","subject_id":"5af00a133606ab0001b942cd","study_id":"6259a891582d1b81b094d7e2","session_id":"62606c3148a947c4e3de7dab","version":1},{"rt":104517,"response":{"P0_Q0":null,"multiQuestion":"sarcastic","Explanation":"David saw a heated fight between the brothers only shortly before. "},"accuracy":[],"embed_level":"a","question_id":"6a","trial_type":"survey","trial_index":6,"time_elapsed":578809,"internal_node_id":"0.0-1.0-0.5-0.5","subject_id":"5af00a133606ab0001b942cd","study_id":"6259a891582d1b81b094d7e2","session_id":"62606c3148a947c4e3de7dab","version":1},{"rt":65107,"response":{"P0_Q0":null,"multiQuestion":"sarcastic","Explanation":"Generally we don't expect that kind of response about an ex after a breakup, he doesn't know they are still on speaking terms, he knows they broke up with a dramatic fight"},"accuracy":[],"embed_level":"a","question_id":"7a","trial_type":"survey","trial_index":7,"time_elapsed":643938,"internal_node_id":"0.0-1.0-0.6-0.6","subject_id":"5af00a133606ab0001b942cd","study_id":"6259a891582d1b81b094d7e2","session_id":"62606c3148a947c4e3de7dab","version":1},{"rt":87094,"response":{"P0_Q0":null,"multiQuestion":"sincere","Explanation":"It doesn't sound like sarcasm, it sound like someone who doesn't want to go into detail, Elizabeth doesn't know what happened on the trip"},"accuracy":[],"embed_level":"b","question_id":"8b","trial_type":"survey","trial_index":8,"time_elapsed":731057,"internal_node_id":"0.0-1.0-0.7-0.7","subject_id":"5af00a133606ab0001b942cd","study_id":"6259a891582d1b81b094d7e2","session_id":"62606c3148a947c4e3de7dab","version":1}]