[{"rt":11845,"stimulus":"<p>In this experiment, you will be presented with 8 scenarios, which you must read carefully.</p><p>After reading each scenario, you will be prompted two comprehension questions: a multiple choice question and a brief open answer question. You will be required to answer both questions for every scenario, meaning 16 questions in total.</p><p>To begin the experiment, hit the space bar.</p>","response":" ","trial_type":"html-keyboard-response","trial_index":0,"time_elapsed":11847,"internal_node_id":"0.0-0.0","subject_id":"5ef1f7026343e20b931a0cb0","study_id":"6259a891582d1b81b094d7e2","session_id":"6260b92c43e724b9b58720ee","version":0},{"rt":70861,"response":{"P0_Q0":null,"multiQuestion":"sincere","Explanation":"Alice seems to be hiding her annoyance so it would probably come across as sincere as that's her intention."},"accuracy":[],"embed_level":"c","question_id":"1c","trial_type":"survey","trial_index":1,"time_elapsed":82763,"internal_node_id":"0.0-1.0-0.0-0.0","subject_id":"5ef1f7026343e20b931a0cb0","study_id":"6259a891582d1b81b094d7e2","session_id":"6260b92c43e724b9b58720ee","version":0},{"rt":54436,"response":{"P0_Q0":null,"multiQuestion":"sincere","Explanation":"Catherine seems to be genuinely enthusiastic about her time at the gym."},"accuracy":[],"embed_level":"a","question_id":"2a","trial_type":"survey","trial_index":2,"time_elapsed":137221,"internal_node_id":"0.0-1.0-0.1-0.1","subject_id":"5ef1f7026343e20b931a0cb0","study_id":"6259a891582d1b81b094d7e2","session_id":"6260b92c43e724b9b58720ee","version":0},{"rt":99672,"response":{"P0_Q0":null,"multiQuestion":"sincere","Explanation":"It seems to be like Anastasia appreciates Jack's attempt to do something nice for her, she doesn't want to hurt his feelings."},"accuracy":[],"embed_level":"c","question_id":"3c","trial_type":"survey","trial_index":3,"time_elapsed":236916,"internal_node_id":"0.0-1.0-0.2-0.2","subject_id":"5ef1f7026343e20b931a0cb0","study_id":"6259a891582d1b81b094d7e2","session_id":"6260b92c43e724b9b58720ee","version":0},{"rt":83774,"response":{"P0_Q0":null,"multiQuestion":"sarcastic","Explanation":"If she doesn't know about Margaret's dog issues then Julia might think she's being sarcastic and means that really he's adorable. But if she knows she's scared of them then she'd realize she's being sincere."},"accuracy":[],"embed_level":"a","question_id":"4a","trial_type":"survey","trial_index":4,"time_elapsed":320705,"internal_node_id":"0.0-1.0-0.3-0.3","subject_id":"5ef1f7026343e20b931a0cb0","study_id":"6259a891582d1b81b094d7e2","session_id":"6260b92c43e724b9b58720ee","version":0},{"rt":70024,"response":{"P0_Q0":null,"multiQuestion":"sincere","Explanation":"He'd think Philip is being sincere because he doesn't know his real feelings about those jackets."},"accuracy":[],"embed_level":"b","question_id":"5b","trial_type":"survey","trial_index":5,"time_elapsed":390748,"internal_node_id":"0.0-1.0-0.4-0.4","subject_id":"5ef1f7026343e20b931a0cb0","study_id":"6259a891582d1b81b094d7e2","session_id":"6260b92c43e724b9b58720ee","version":0},{"rt":65737,"response":{"P0_Q0":null,"multiQuestion":"sincere","Explanation":"Even if David saw them fighting that one time, he has no real reason to think they don't like each other so he'd probably think it was sincere."},"accuracy":[],"embed_level":"c","question_id":"6c","trial_type":"survey","trial_index":6,"time_elapsed":456504,"internal_node_id":"0.0-1.0-0.5-0.5","subject_id":"5ef1f7026343e20b931a0cb0","study_id":"6259a891582d1b81b094d7e2","session_id":"6260b92c43e724b9b58720ee","version":0},{"rt":87884,"response":{"P0_Q0":null,"multiQuestion":"sincere","Explanation":"I think that the tone of the conversation would make a difference here. I feel like Ken would know if that's something Ana would be sarcastic about or not."},"accuracy":[],"embed_level":"b","question_id":"7b","trial_type":"survey","trial_index":7,"time_elapsed":544403,"internal_node_id":"0.0-1.0-0.6-0.6","subject_id":"5ef1f7026343e20b931a0cb0","study_id":"6259a891582d1b81b094d7e2","session_id":"6260b92c43e724b9b58720ee","version":0},{"rt":71322,"response":{"P0_Q0":null,"multiQuestion":"sincere","Explanation":"Elizabeth would probably really that May's reply is less than enthusiastic but I don't think she'd think May is being sarcastic unless she knows more of the story."},"accuracy":[],"embed_level":"a","question_id":"8a","trial_type":"survey","trial_index":8,"time_elapsed":615742,"internal_node_id":"0.0-1.0-0.7-0.7","subject_id":"5ef1f7026343e20b931a0cb0","study_id":"6259a891582d1b81b094d7e2","session_id":"6260b92c43e724b9b58720ee","version":0}]