[{"rt":183061,"stimulus":"<p>In this experiment, you will be presented with 8 scenarios, which you must read carefully.</p><p>After reading each scenario, you will be prompted two comprehension questions: a multiple choice question and a brief open answer question. You will be required to answer both questions for every scenario, meaning 16 questions in total.</p><p>To begin the experiment, hit the space bar.</p>","response":" ","trial_type":"html-keyboard-response","trial_index":0,"time_elapsed":183066,"internal_node_id":"0.0-0.0","subject_id":"5eb767871de6e86a3276f532","study_id":"6259a891582d1b81b094d7e2","session_id":"6260693bb497d17b343413e5","version":2},{"rt":50794,"response":{"P0_Q0":null,"multiQuestion":"sincere","Explanation":"it was over text and oliva provided no current context on her feelings regarding the haircut"},"accuracy":[],"embed_level":"a","question_id":"1a","trial_type":"survey","trial_index":1,"time_elapsed":233893,"internal_node_id":"0.0-1.0-0.0-0.0","subject_id":"5eb767871de6e86a3276f532","study_id":"6259a891582d1b81b094d7e2","session_id":"6260693bb497d17b343413e5","version":2},{"rt":50871,"response":{"P0_Q0":null,"multiQuestion":"sincere","Explanation":"nothing was said to imply sarcasm"},"accuracy":[],"embed_level":"b","question_id":"2b","trial_type":"survey","trial_index":2,"time_elapsed":284778,"internal_node_id":"0.0-1.0-0.1-0.1","subject_id":"5eb767871de6e86a3276f532","study_id":"6259a891582d1b81b094d7e2","session_id":"6260693bb497d17b343413e5","version":2},{"rt":44530,"response":{"P0_Q0":null,"multiQuestion":"sincere","Explanation":"he wouldn't know that he messed up, so he would think she was sincere"},"accuracy":[],"embed_level":"b","question_id":"3b","trial_type":"survey","trial_index":3,"time_elapsed":329322,"internal_node_id":"0.0-1.0-0.2-0.2","subject_id":"5eb767871de6e86a3276f532","study_id":"6259a891582d1b81b094d7e2","session_id":"6260693bb497d17b343413e5","version":2},{"rt":72242,"response":{"P0_Q0":null,"multiQuestion":"sincere","Explanation":"maybe sarcastic? but probably sincere since she didn't indicate sarcasm"},"accuracy":[],"embed_level":"c","question_id":"4c","trial_type":"survey","trial_index":4,"time_elapsed":401577,"internal_node_id":"0.0-1.0-0.3-0.3","subject_id":"5eb767871de6e86a3276f532","study_id":"6259a891582d1b81b094d7e2","session_id":"6260693bb497d17b343413e5","version":2},{"rt":33261,"response":{"P0_Q0":null,"multiQuestion":"sincere","Explanation":"because he was polite during the interview"},"accuracy":[],"embed_level":"a","question_id":"5a","trial_type":"survey","trial_index":5,"time_elapsed":434849,"internal_node_id":"0.0-1.0-0.4-0.4","subject_id":"5eb767871de6e86a3276f532","study_id":"6259a891582d1b81b094d7e2","session_id":"6260693bb497d17b343413e5","version":2},{"rt":40164,"response":{"P0_Q0":null,"multiQuestion":"sarcastic","Explanation":"he saw the fight, so he would know it was sarcastic"},"accuracy":[],"embed_level":"b","question_id":"6b","trial_type":"survey","trial_index":6,"time_elapsed":475023,"internal_node_id":"0.0-1.0-0.5-0.5","subject_id":"5eb767871de6e86a3276f532","study_id":"6259a891582d1b81b094d7e2","session_id":"6260693bb497d17b343413e5","version":2},{"rt":34654,"response":{"P0_Q0":null,"multiQuestion":"sincere","Explanation":"because she still contacts him regularly "},"accuracy":[],"embed_level":"c","question_id":"7c","trial_type":"survey","trial_index":7,"time_elapsed":509689,"internal_node_id":"0.0-1.0-0.6-0.6","subject_id":"5eb767871de6e86a3276f532","study_id":"6259a891582d1b81b094d7e2","session_id":"6260693bb497d17b343413e5","version":2},{"rt":76565,"response":{"P0_Q0":null,"multiQuestion":"sincere","Explanation":"elizabeth would not have known it was sarcastic"},"accuracy":[],"embed_level":"c","question_id":"8c","trial_type":"survey","trial_index":8,"time_elapsed":586264,"internal_node_id":"0.0-1.0-0.7-0.7","subject_id":"5eb767871de6e86a3276f532","study_id":"6259a891582d1b81b094d7e2","session_id":"6260693bb497d17b343413e5","version":2}]