[{"rt":19822,"stimulus":"<p>In this experiment, you will be presented with 8 scenarios, which you must read carefully.</p><p>After reading each scenario, you will be prompted two comprehension questions: a multiple choice question and a brief open answer question. You will be required to answer both questions for every scenario, meaning 16 questions in total.</p><p>To begin the experiment, hit the space bar.</p>","response":" ","trial_type":"html-keyboard-response","trial_index":0,"time_elapsed":19826,"internal_node_id":"0.0-0.0","subject_id":"5e16e87537241cc82920cd0e","study_id":"6259a891582d1b81b094d7e2","session_id":"62606cc0d6d9e759c856f4a4","version":2},{"rt":101517,"response":{"P0_Q0":null,"multiQuestion":"sincere","Explanation":"they are friends and alice would be nice for olivia"},"accuracy":[],"embed_level":"a","question_id":"1a","trial_type":"survey","trial_index":1,"time_elapsed":121432,"internal_node_id":"0.0-1.0-0.0-0.0","subject_id":"5e16e87537241cc82920cd0e","study_id":"6259a891582d1b81b094d7e2","session_id":"62606cc0d6d9e759c856f4a4","version":2},{"rt":105785,"response":{"P0_Q0":null,"multiQuestion":"sincere","Explanation":"she is high motivated"},"accuracy":[],"embed_level":"b","question_id":"2b","trial_type":"survey","trial_index":2,"time_elapsed":227243,"internal_node_id":"0.0-1.0-0.1-0.1","subject_id":"5e16e87537241cc82920cd0e","study_id":"6259a891582d1b81b094d7e2","session_id":"62606cc0d6d9e759c856f4a4","version":2},{"rt":89096,"response":{"P0_Q0":null,"multiQuestion":"sarcastic","Explanation":"She hate it but she tell that was perfect."},"accuracy":[],"embed_level":"b","question_id":"3b","trial_type":"survey","trial_index":3,"time_elapsed":316377,"internal_node_id":"0.0-1.0-0.2-0.2","subject_id":"5e16e87537241cc82920cd0e","study_id":"6259a891582d1b81b094d7e2","session_id":"62606cc0d6d9e759c856f4a4","version":2},{"rt":94840,"response":{"P0_Q0":null,"multiQuestion":"sincere","Explanation":"she tell her truth."},"accuracy":[],"embed_level":"c","question_id":"4c","trial_type":"survey","trial_index":4,"time_elapsed":411255,"internal_node_id":"0.0-1.0-0.3-0.3","subject_id":"5e16e87537241cc82920cd0e","study_id":"6259a891582d1b81b094d7e2","session_id":"62606cc0d6d9e759c856f4a4","version":2},{"rt":79346,"response":{"P0_Q0":null,"multiQuestion":"sarcastic","Explanation":"phillip was very sarcastic, he hate erics jacket"},"accuracy":[],"embed_level":"a","question_id":"5a","trial_type":"survey","trial_index":5,"time_elapsed":490646,"internal_node_id":"0.0-1.0-0.4-0.4","subject_id":"5e16e87537241cc82920cd0e","study_id":"6259a891582d1b81b094d7e2","session_id":"62606cc0d6d9e759c856f4a4","version":2},{"rt":105647,"response":{"P0_Q0":null,"multiQuestion":"sincere","Explanation":"theey hate and love themselfe"},"accuracy":[],"embed_level":"b","question_id":"6b","trial_type":"survey","trial_index":6,"time_elapsed":596329,"internal_node_id":"0.0-1.0-0.5-0.5","subject_id":"5e16e87537241cc82920cd0e","study_id":"6259a891582d1b81b094d7e2","session_id":"62606cc0d6d9e759c856f4a4","version":2},{"rt":85777,"response":{"P0_Q0":null,"multiQuestion":"sincere","Explanation":"After broke up Ana think that James is a good person."},"accuracy":[],"embed_level":"c","question_id":"7c","trial_type":"survey","trial_index":7,"time_elapsed":682140,"internal_node_id":"0.0-1.0-0.6-0.6","subject_id":"5e16e87537241cc82920cd0e","study_id":"6259a891582d1b81b094d7e2","session_id":"62606cc0d6d9e759c856f4a4","version":2},{"rt":117982,"response":{"P0_Q0":null,"multiQuestion":"sarcastic","Explanation":"it wasnt nice."},"accuracy":[],"embed_level":"c","question_id":"8c","trial_type":"survey","trial_index":8,"time_elapsed":800156,"internal_node_id":"0.0-1.0-0.7-0.7","subject_id":"5e16e87537241cc82920cd0e","study_id":"6259a891582d1b81b094d7e2","session_id":"62606cc0d6d9e759c856f4a4","version":2}]