[{"rt":735981,"stimulus":"<p>In this experiment, you will be presented with 8 scenarios, which you must read carefully.</p><p>After reading each scenario, you will be prompted two comprehension questions: a multiple choice question and a brief open answer question. You will be required to answer both questions for every scenario, meaning 16 questions in total.</p><p>To begin the experiment, hit the space bar.</p>","response":" ","trial_type":"html-keyboard-response","trial_index":0,"time_elapsed":735989,"internal_node_id":"0.0-0.0","subject_id":"5f871f8fc7c8750d22245f79","study_id":"6259a891582d1b81b094d7e2","session_id":"62606cfdd09c168ddf32aeb6","version":0},{"rt":101697,"response":{"P0_Q0":null,"multiQuestion":"sincere","Explanation":"They are best friends and her reply doesn't have any elipses or emoji or anything to indicate uncertainty or sarcasm"},"accuracy":[],"embed_level":"c","question_id":"1c","trial_type":"survey","trial_index":1,"time_elapsed":837837,"internal_node_id":"0.0-1.0-0.0-0.0","subject_id":"5f871f8fc7c8750d22245f79","study_id":"6259a891582d1b81b094d7e2","session_id":"62606cfdd09c168ddf32aeb6","version":0},{"rt":170355,"response":{"P0_Q0":null,"multiQuestion":"sarcastic","Explanation":"She would obviously not actually lift a cow "},"accuracy":[],"embed_level":"a","question_id":"2a","trial_type":"survey","trial_index":2,"time_elapsed":1008229,"internal_node_id":"0.0-1.0-0.1-0.1","subject_id":"5f871f8fc7c8750d22245f79","study_id":"6259a891582d1b81b094d7e2","session_id":"62606cfdd09c168ddf32aeb6","version":0},{"rt":101593,"response":{"P0_Q0":null,"multiQuestion":"sincere","Explanation":"He wasn't aware of him swapping salt and sugar"},"accuracy":[],"embed_level":"c","question_id":"3c","trial_type":"survey","trial_index":3,"time_elapsed":1109863,"internal_node_id":"0.0-1.0-0.2-0.2","subject_id":"5f871f8fc7c8750d22245f79","study_id":"6259a891582d1b81b094d7e2","session_id":"62606cfdd09c168ddf32aeb6","version":0},{"rt":63241,"response":{"P0_Q0":null,"multiQuestion":"sarcastic","Explanation":"It would be akward to actually say that so I think she would think that it is sarcasm"},"accuracy":[],"embed_level":"a","question_id":"4a","trial_type":"survey","trial_index":4,"time_elapsed":1173138,"internal_node_id":"0.0-1.0-0.3-0.3","subject_id":"5f871f8fc7c8750d22245f79","study_id":"6259a891582d1b81b094d7e2","session_id":"62606cfdd09c168ddf32aeb6","version":0},{"rt":128523,"response":{"P0_Q0":null,"multiQuestion":"sincere","Explanation":"Eric wasn't aware of the conversation beforehand"},"accuracy":[],"embed_level":"b","question_id":"5b","trial_type":"survey","trial_index":5,"time_elapsed":1301699,"internal_node_id":"0.0-1.0-0.4-0.4","subject_id":"5f871f8fc7c8750d22245f79","study_id":"6259a891582d1b81b094d7e2","session_id":"62606cfdd09c168ddf32aeb6","version":0},{"rt":88940,"response":{"P0_Q0":null,"multiQuestion":"sarcastic","Explanation":"The only time he has seen them interacting was a heated argument"},"accuracy":[],"embed_level":"c","question_id":"6c","trial_type":"survey","trial_index":6,"time_elapsed":1390684,"internal_node_id":"0.0-1.0-0.5-0.5","subject_id":"5f871f8fc7c8750d22245f79","study_id":"6259a891582d1b81b094d7e2","session_id":"62606cfdd09c168ddf32aeb6","version":0},{"rt":76187,"response":{"P0_Q0":null,"multiQuestion":"sincere","Explanation":"It would not be an conversation for sarcasm"},"accuracy":[],"embed_level":"b","question_id":"7b","trial_type":"survey","trial_index":7,"time_elapsed":1466902,"internal_node_id":"0.0-1.0-0.6-0.6","subject_id":"5f871f8fc7c8750d22245f79","study_id":"6259a891582d1b81b094d7e2","session_id":"62606cfdd09c168ddf32aeb6","version":0},{"rt":72753,"response":{"P0_Q0":null,"multiQuestion":"sincere","Explanation":"she would have no reason to believe that May was lying"},"accuracy":[],"embed_level":"a","question_id":"8a","trial_type":"survey","trial_index":8,"time_elapsed":1539688,"internal_node_id":"0.0-1.0-0.7-0.7","subject_id":"5f871f8fc7c8750d22245f79","study_id":"6259a891582d1b81b094d7e2","session_id":"62606cfdd09c168ddf32aeb6","version":0}]