[{"rt":12511,"stimulus":"<p>In this experiment, you will be presented with 8 scenarios, which you must read carefully.</p><p>After reading each scenario, you will be prompted two comprehension questions: a multiple choice question and a brief open answer question. You will be required to answer both questions for every scenario, meaning 16 questions in total.</p><p>To begin the experiment, hit the space bar.</p>","response":" ","trial_type":"html-keyboard-response","trial_index":0,"time_elapsed":12514,"internal_node_id":"0.0-0.0","subject_id":"6167168aa408e8ef75c85410","study_id":"6259a891582d1b81b094d7e2","session_id":"6260b8f6a0ee42cf1b86a4a2","version":1},{"rt":84287,"response":{"P0_Q0":null,"multiQuestion":"sincere","Explanation":"They've been close and friends usually give a positive response to each other. Unless they were \"frienemies\", it seems like Olivia would have taken the response at face value."},"accuracy":[],"embed_level":"b","question_id":"1b","trial_type":"survey","trial_index":1,"time_elapsed":96871,"internal_node_id":"0.0-1.0-0.0-0.0","subject_id":"6167168aa408e8ef75c85410","study_id":"6259a891582d1b81b094d7e2","session_id":"6260b8f6a0ee42cf1b86a4a2","version":1},{"rt":129267,"response":{"P0_Q0":null,"multiQuestion":"sincere","Explanation":"As they are partners, I'd expect that Jane knows how happy Catherine is to be going to the gym, even if she doesn't agree with it. So she'd take it as sincere (although she'd probably recognize that Catherine doesn't actually want to lift a cow--but I don't think that statement counts as sarcasm)"},"accuracy":[],"embed_level":"c","question_id":"2c","trial_type":"survey","trial_index":2,"time_elapsed":226160,"internal_node_id":"0.0-1.0-0.1-0.1","subject_id":"6167168aa408e8ef75c85410","study_id":"6259a891582d1b81b094d7e2","session_id":"6260b8f6a0ee42cf1b86a4a2","version":1},{"rt":87561,"response":{"P0_Q0":null,"multiQuestion":"sincere","Explanation":"Once again, as they are close, it seems like Anastasia would probably be nice about it. If Jack never realized he'd mixed up the salt and sugar, he'd think his cake actually came out ok and that Anastasia enjoyed it (at least enough to be kind about it). "},"accuracy":[],"embed_level":"a","question_id":"3a","trial_type":"survey","trial_index":3,"time_elapsed":313757,"internal_node_id":"0.0-1.0-0.2-0.2","subject_id":"6167168aa408e8ef75c85410","study_id":"6259a891582d1b81b094d7e2","session_id":"6260b8f6a0ee42cf1b86a4a2","version":1},{"rt":55679,"response":{"P0_Q0":null,"multiQuestion":"sincere","Explanation":"Julia might be offended by the response, but it would be a strange thing to say with sarcastic intent."},"accuracy":[],"embed_level":"b","question_id":"4b","trial_type":"survey","trial_index":4,"time_elapsed":369466,"internal_node_id":"0.0-1.0-0.3-0.3","subject_id":"6167168aa408e8ef75c85410","study_id":"6259a891582d1b81b094d7e2","session_id":"6260b8f6a0ee42cf1b86a4a2","version":1},{"rt":118933,"response":{"P0_Q0":null,"multiQuestion":"sincere","Explanation":"This is harder. If Eric is aware of the conflict between the magazine and the brand, OR if he noticed the scoff, he might read it as sarcastic, but with the information given, it's unlikely that he would read further into it, even though Phillip almost certainly meant it sarcastically."},"accuracy":[],"embed_level":"c","question_id":"5c","trial_type":"survey","trial_index":5,"time_elapsed":488431,"internal_node_id":"0.0-1.0-0.4-0.4","subject_id":"6167168aa408e8ef75c85410","study_id":"6259a891582d1b81b094d7e2","session_id":"6260b8f6a0ee42cf1b86a4a2","version":1},{"rt":85497,"response":{"P0_Q0":null,"multiQuestion":"sarcastic","Explanation":"This is also more challenging. Having seen the fight and not knowing the two of them well, David might have interpreted it as said with an eyeroll. But he might also recognize that the fight was not an indicator of their relationship."},"accuracy":[],"embed_level":"a","question_id":"6a","trial_type":"survey","trial_index":6,"time_elapsed":573961,"internal_node_id":"0.0-1.0-0.5-0.5","subject_id":"6167168aa408e8ef75c85410","study_id":"6259a891582d1b81b094d7e2","session_id":"6260b8f6a0ee42cf1b86a4a2","version":1},{"rt":71406,"response":{"P0_Q0":null,"multiQuestion":"sarcastic","Explanation":"Ken only knows that it ended badly, but he doesn't know about Ana's feelings since. If she said it with no other context and no reasons, he might interpret it as sarcasm. If she gave reasons for thinking so, he'd probably take it as sincere."},"accuracy":[],"embed_level":"a","question_id":"7a","trial_type":"survey","trial_index":7,"time_elapsed":645400,"internal_node_id":"0.0-1.0-0.6-0.6","subject_id":"6167168aa408e8ef75c85410","study_id":"6259a891582d1b81b094d7e2","session_id":"6260b8f6a0ee42cf1b86a4a2","version":1},{"rt":56740,"response":{"P0_Q0":null,"multiQuestion":"sincere","Explanation":"Having no further context, it seems unlikely that Elizabeth would see sarcasm here."},"accuracy":[],"embed_level":"b","question_id":"8b","trial_type":"survey","trial_index":8,"time_elapsed":702173,"internal_node_id":"0.0-1.0-0.7-0.7","subject_id":"6167168aa408e8ef75c85410","study_id":"6259a891582d1b81b094d7e2","session_id":"6260b8f6a0ee42cf1b86a4a2","version":1}]