[{"rt":17719,"stimulus":"<p>In this experiment, you will be presented with 8 scenarios, which you must read carefully.</p><p>After reading each scenario, you will be prompted two comprehension questions: a multiple choice question and a brief open answer question. You will be required to answer both questions for every scenario, meaning 16 questions in total.</p><p>To begin the experiment, hit the space bar.</p>","response":" ","trial_type":"html-keyboard-response","trial_index":0,"time_elapsed":17720,"internal_node_id":"0.0-0.0","subject_id":"61026015b70c93b95254a4ca","study_id":"6259a891582d1b81b094d7e2","session_id":"6260b938c7cabe9b6f0cbccc","version":1},{"rt":114930,"response":{"P0_Q0":null,"multiQuestion":"sincere","Explanation":"They are friends, I wouldnt expect my friend to be annoyed just because we both have bangs. I think it's a weak reason to be annoyed at a lifelong friend."},"accuracy":[],"embed_level":"b","question_id":"1b","trial_type":"survey","trial_index":1,"time_elapsed":132708,"internal_node_id":"0.0-1.0-0.0-0.0","subject_id":"61026015b70c93b95254a4ca","study_id":"6259a891582d1b81b094d7e2","session_id":"6260b938c7cabe9b6f0cbccc","version":1},{"rt":123730,"response":{"P0_Q0":null,"multiQuestion":"sarcastic","Explanation":"It's a flippant, light-hearted tone. Clearly exaggeration, and she's just excited about her fitness progress."},"accuracy":[],"embed_level":"c","question_id":"2c","trial_type":"survey","trial_index":2,"time_elapsed":256454,"internal_node_id":"0.0-1.0-0.1-0.1","subject_id":"61026015b70c93b95254a4ca","study_id":"6259a891582d1b81b094d7e2","session_id":"6260b938c7cabe9b6f0cbccc","version":1},{"rt":84315,"response":{"P0_Q0":null,"multiQuestion":"sincere","Explanation":"I'm assuming he doesn't know he mixed up the sugar with salt. He has no reason to think she isn't appreciative of his efforts, even if he isn't the best cook."},"accuracy":[],"embed_level":"a","question_id":"3a","trial_type":"survey","trial_index":3,"time_elapsed":340793,"internal_node_id":"0.0-1.0-0.2-0.2","subject_id":"61026015b70c93b95254a4ca","study_id":"6259a891582d1b81b094d7e2","session_id":"6260b938c7cabe9b6f0cbccc","version":1},{"rt":63886,"response":{"P0_Q0":null,"multiQuestion":"sincere","Explanation":"Bulldogs have a reputation, and it's not a light hearted thing you might say in jest or as a joke. "},"accuracy":[],"embed_level":"b","question_id":"4b","trial_type":"survey","trial_index":4,"time_elapsed":404700,"internal_node_id":"0.0-1.0-0.3-0.3","subject_id":"61026015b70c93b95254a4ca","study_id":"6259a891582d1b81b094d7e2","session_id":"6260b938c7cabe9b6f0cbccc","version":1},{"rt":94998,"response":{"P0_Q0":null,"multiQuestion":"sincere","Explanation":"Would have no reason to doubt the sincerity of the statement, unless he's privy to the feud, but if he was he surely would have avoided wearing the brand to the interview."},"accuracy":[],"embed_level":"c","question_id":"5c","trial_type":"survey","trial_index":5,"time_elapsed":499718,"internal_node_id":"0.0-1.0-0.4-0.4","subject_id":"61026015b70c93b95254a4ca","study_id":"6259a891582d1b81b094d7e2","session_id":"6260b938c7cabe9b6f0cbccc","version":1},{"rt":172884,"response":{"P0_Q0":null,"multiQuestion":"sarcastic","Explanation":"Although they get on generally, the fact that they just got into a fight in front of David means that in that moment Jeremy probably isn't feeling very favourable towards his brother so the comment doesn't seem sincere."},"accuracy":[],"embed_level":"a","question_id":"6a","trial_type":"survey","trial_index":6,"time_elapsed":672620,"internal_node_id":"0.0-1.0-0.5-0.5","subject_id":"61026015b70c93b95254a4ca","study_id":"6259a891582d1b81b094d7e2","session_id":"6260b938c7cabe9b6f0cbccc","version":1},{"rt":126360,"response":{"P0_Q0":null,"multiQuestion":"sarcastic","Explanation":"Hasn't spoken to her since the breakup, so is probably unaware that they are still close. It's unusual for ex partners to be close, so he would probably assume it was a sarcastic comment."},"accuracy":[],"embed_level":"a","question_id":"7a","trial_type":"survey","trial_index":7,"time_elapsed":799004,"internal_node_id":"0.0-1.0-0.6-0.6","subject_id":"61026015b70c93b95254a4ca","study_id":"6259a891582d1b81b094d7e2","session_id":"6260b938c7cabe9b6f0cbccc","version":1},{"rt":117362,"response":{"P0_Q0":null,"multiQuestion":"sincere","Explanation":"Elizabeth would have no reason to think that May would be feeling resentful about the trip, or what had gone on there. 'It was nice' seems sincere, if a little blunt."},"accuracy":[],"embed_level":"b","question_id":"8b","trial_type":"survey","trial_index":8,"time_elapsed":916386,"internal_node_id":"0.0-1.0-0.7-0.7","subject_id":"61026015b70c93b95254a4ca","study_id":"6259a891582d1b81b094d7e2","session_id":"6260b938c7cabe9b6f0cbccc","version":1}]