[{"rt":8917,"stimulus":"<p>In this experiment, you will be presented with 8 scenarios, which you must read carefully.</p><p>After reading each scenario, you will be prompted two comprehension questions: a multiple choice question and a brief open answer question. You will be required to answer both questions for every scenario, meaning 16 questions in total.</p><p>To begin the experiment, hit the space bar.</p>","response":" ","trial_type":"html-keyboard-response","trial_index":0,"time_elapsed":8924,"internal_node_id":"0.0-0.0","subject_id":"5b6cd68c794227000168c018","study_id":"6259a891582d1b81b094d7e2","session_id":"62606960273898d7faf9617e","version":2},{"rt":47735,"response":{"P0_Q0":null,"multiQuestion":"sincere","Explanation":"They care about each other, it sounded sincere and Olivia wouldn't have reason to believe it sarcastic."},"accuracy":[],"embed_level":"a","question_id":"1a","trial_type":"survey","trial_index":1,"time_elapsed":57197,"internal_node_id":"0.0-1.0-0.0-0.0","subject_id":"5b6cd68c794227000168c018","study_id":"6259a891582d1b81b094d7e2","session_id":"62606960273898d7faf9617e","version":2},{"rt":49890,"response":{"P0_Q0":null,"multiQuestion":"sincere","Explanation":"This is neither sincere or sarcastic. It's hyperbole."},"accuracy":[],"embed_level":"b","question_id":"2b","trial_type":"survey","trial_index":2,"time_elapsed":107167,"internal_node_id":"0.0-1.0-0.1-0.1","subject_id":"5b6cd68c794227000168c018","study_id":"6259a891582d1b81b094d7e2","session_id":"62606960273898d7faf9617e","version":2},{"rt":39322,"response":{"P0_Q0":null,"multiQuestion":"sincere","Explanation":"He doesn't know he used salt by accident."},"accuracy":[],"embed_level":"b","question_id":"3b","trial_type":"survey","trial_index":3,"time_elapsed":146661,"internal_node_id":"0.0-1.0-0.2-0.2","subject_id":"5b6cd68c794227000168c018","study_id":"6259a891582d1b81b094d7e2","session_id":"62606960273898d7faf9617e","version":2},{"rt":66276,"response":{"P0_Q0":null,"multiQuestion":"sarcastic","Explanation":"Most people think he's cute, so Julia would read it as a joke and she's new, she doesn't know Margaret that well."},"accuracy":[],"embed_level":"c","question_id":"4c","trial_type":"survey","trial_index":4,"time_elapsed":213088,"internal_node_id":"0.0-1.0-0.3-0.3","subject_id":"5b6cd68c794227000168c018","study_id":"6259a891582d1b81b094d7e2","session_id":"62606960273898d7faf9617e","version":2},{"rt":53086,"response":{"P0_Q0":null,"multiQuestion":"sincere","Explanation":"Not entirely sure though, it depends on if Eric noted the sotto voce scoff."},"accuracy":[],"embed_level":"a","question_id":"5a","trial_type":"survey","trial_index":5,"time_elapsed":266633,"internal_node_id":"0.0-1.0-0.4-0.4","subject_id":"5b6cd68c794227000168c018","study_id":"6259a891582d1b81b094d7e2","session_id":"62606960273898d7faf9617e","version":2},{"rt":65526,"response":{"P0_Q0":null,"multiQuestion":"sarcastic","Explanation":"He saw them fight, so he has insight others don't, which Jeremy knows."},"accuracy":[],"embed_level":"b","question_id":"6b","trial_type":"survey","trial_index":6,"time_elapsed":332280,"internal_node_id":"0.0-1.0-0.5-0.5","subject_id":"5b6cd68c794227000168c018","study_id":"6259a891582d1b81b094d7e2","session_id":"62606960273898d7faf9617e","version":2},{"rt":75595,"response":{"P0_Q0":null,"multiQuestion":"sarcastic","Explanation":"Ken doesn't know all of what's gone on since their break up, but presumably knows (common knowledge that their relationship ended with \"a very dramatic fight\"."},"accuracy":[],"embed_level":"c","question_id":"7c","trial_type":"survey","trial_index":7,"time_elapsed":408014,"internal_node_id":"0.0-1.0-0.6-0.6","subject_id":"5b6cd68c794227000168c018","study_id":"6259a891582d1b81b094d7e2","session_id":"62606960273898d7faf9617e","version":2},{"rt":82110,"response":{"P0_Q0":null,"multiQuestion":"sincere","Explanation":"Almost everything that happened here took place inside May's head, and wasn't articulated, so why would Elizabeth have reason to think it was sarcasm?"},"accuracy":[],"embed_level":"c","question_id":"8c","trial_type":"survey","trial_index":8,"time_elapsed":490217,"internal_node_id":"0.0-1.0-0.7-0.7","subject_id":"5b6cd68c794227000168c018","study_id":"6259a891582d1b81b094d7e2","session_id":"62606960273898d7faf9617e","version":2}]