[{"rt":10467,"stimulus":"<p>In this experiment, you will be presented with 8 scenarios, which you must read carefully.</p><p>After reading each scenario, you will be prompted two comprehension questions: a multiple choice question and a brief open answer question. You will be required to answer both questions for every scenario, meaning 16 questions in total.</p><p>To begin the experiment, hit the space bar.</p>","response":" ","trial_type":"html-keyboard-response","trial_index":0,"time_elapsed":10470,"internal_node_id":"0.0-0.0","subject_id":"57a6533382f7f90001eea86c","study_id":"6259a891582d1b81b094d7e2","session_id":"62606ca0e67ee1e3ff7525a4","version":1},{"rt":93925,"response":{"P0_Q0":null,"multiQuestion":"sincere","Explanation":"I think Olivia didn't realise alice wouldn't like her having the same hairstyle and would take comment at face value"},"accuracy":[],"embed_level":"b","question_id":"1b","trial_type":"survey","trial_index":1,"time_elapsed":104462,"internal_node_id":"0.0-1.0-0.0-0.0","subject_id":"57a6533382f7f90001eea86c","study_id":"6259a891582d1b81b094d7e2","session_id":"62606ca0e67ee1e3ff7525a4","version":1},{"rt":90128,"response":{"P0_Q0":null,"multiQuestion":"sincere","Explanation":"I think Catherine's answer might be defensive , doesn't seem sarcastic"},"accuracy":[],"embed_level":"c","question_id":"2c","trial_type":"survey","trial_index":2,"time_elapsed":194612,"internal_node_id":"0.0-1.0-0.1-0.1","subject_id":"57a6533382f7f90001eea86c","study_id":"6259a891582d1b81b094d7e2","session_id":"62606ca0e67ee1e3ff7525a4","version":1},{"rt":85787,"response":{"P0_Q0":null,"multiQuestion":"sincere","Explanation":"I think she's trying to protect his feelings and he would probably take it that way. He probably doesn't even know what he did"},"accuracy":[],"embed_level":"a","question_id":"3a","trial_type":"survey","trial_index":3,"time_elapsed":280429,"internal_node_id":"0.0-1.0-0.2-0.2","subject_id":"57a6533382f7f90001eea86c","study_id":"6259a891582d1b81b094d7e2","session_id":"62606ca0e67ee1e3ff7525a4","version":1},{"rt":43959,"response":{"P0_Q0":null,"multiQuestion":"sincere","Explanation":"Don't see why she would take it any other way"},"accuracy":[],"embed_level":"b","question_id":"4b","trial_type":"survey","trial_index":4,"time_elapsed":324420,"internal_node_id":"0.0-1.0-0.3-0.3","subject_id":"57a6533382f7f90001eea86c","study_id":"6259a891582d1b81b094d7e2","session_id":"62606ca0e67ee1e3ff7525a4","version":1},{"rt":90572,"response":{"P0_Q0":null,"multiQuestion":"sincere","Explanation":"Eric obviously thinks his outfit was fine. Phillip hasn't given him any clue as to how he feels"},"accuracy":[],"embed_level":"c","question_id":"5c","trial_type":"survey","trial_index":5,"time_elapsed":415019,"internal_node_id":"0.0-1.0-0.4-0.4","subject_id":"57a6533382f7f90001eea86c","study_id":"6259a891582d1b81b094d7e2","session_id":"62606ca0e67ee1e3ff7525a4","version":1},{"rt":45911,"response":{"P0_Q0":null,"multiQuestion":"sarcastic","Explanation":"He's seen them fighting"},"accuracy":[],"embed_level":"a","question_id":"6a","trial_type":"survey","trial_index":6,"time_elapsed":460959,"internal_node_id":"0.0-1.0-0.5-0.5","subject_id":"57a6533382f7f90001eea86c","study_id":"6259a891582d1b81b094d7e2","session_id":"62606ca0e67ee1e3ff7525a4","version":1},{"rt":74729,"response":{"P0_Q0":null,"multiQuestion":"sarcastic","Explanation":"If he hasn't had much contact with her he'll probably assume she thinks badly of james"},"accuracy":[],"embed_level":"a","question_id":"7a","trial_type":"survey","trial_index":7,"time_elapsed":535719,"internal_node_id":"0.0-1.0-0.6-0.6","subject_id":"57a6533382f7f90001eea86c","study_id":"6259a891582d1b81b094d7e2","session_id":"62606ca0e67ee1e3ff7525a4","version":1},{"rt":85604,"response":{"P0_Q0":null,"multiQuestion":"sincere","Explanation":"I'm assuming May hasn;t shared her true feelings with anyone"},"accuracy":[],"embed_level":"b","question_id":"8b","trial_type":"survey","trial_index":8,"time_elapsed":621352,"internal_node_id":"0.0-1.0-0.7-0.7","subject_id":"57a6533382f7f90001eea86c","study_id":"6259a891582d1b81b094d7e2","session_id":"62606ca0e67ee1e3ff7525a4","version":1}]