[{"rt":18274,"stimulus":"<p>In this experiment, you will be presented with 8 scenarios, which you must read carefully.</p><p>After reading each scenario, you will be prompted two comprehension questions: a multiple choice question and a brief open answer question. You will be required to answer both questions for every scenario, meaning 16 questions in total.</p><p>To begin the experiment, hit the space bar.</p>","response":" ","trial_type":"html-keyboard-response","trial_index":0,"time_elapsed":18278,"internal_node_id":"0.0-0.0","subject_id":"5f92002ccc33eb0ff3d749c5","study_id":"6259a891582d1b81b094d7e2","session_id":"6260b9280644c8db70cc982e","version":0},{"rt":113240,"response":{"P0_Q0":null,"multiQuestion":"sincere","Explanation":"Olivia has no way of knowing that Alice was annoyed by Olivia's new bangs."},"accuracy":[],"embed_level":"c","question_id":"1c","trial_type":"survey","trial_index":1,"time_elapsed":131601,"internal_node_id":"0.0-1.0-0.0-0.0","subject_id":"5f92002ccc33eb0ff3d749c5","study_id":"6259a891582d1b81b094d7e2","session_id":"6260b9280644c8db70cc982e","version":0},{"rt":108078,"response":{"P0_Q0":null,"multiQuestion":"sincere","Explanation":"Jane should know Catherine well enough to realize that Catherine is excited."},"accuracy":[],"embed_level":"a","question_id":"2a","trial_type":"survey","trial_index":2,"time_elapsed":239708,"internal_node_id":"0.0-1.0-0.1-0.1","subject_id":"5f92002ccc33eb0ff3d749c5","study_id":"6259a891582d1b81b094d7e2","session_id":"6260b9280644c8db70cc982e","version":0},{"rt":114684,"response":{"P0_Q0":null,"multiQuestion":"sincere","Explanation":"Anastasia is clearly attempting to protect her best friend's feelings. "},"accuracy":[],"embed_level":"c","question_id":"3c","trial_type":"survey","trial_index":3,"time_elapsed":354429,"internal_node_id":"0.0-1.0-0.2-0.2","subject_id":"5f92002ccc33eb0ff3d749c5","study_id":"6259a891582d1b81b094d7e2","session_id":"6260b9280644c8db70cc982e","version":0},{"rt":59519,"response":{"P0_Q0":null,"multiQuestion":"sarcastic","Explanation":"Based on the reactions of her other friends, Julia likely thinks that Margaret is attempting to be funny. "},"accuracy":[],"embed_level":"a","question_id":"4a","trial_type":"survey","trial_index":4,"time_elapsed":413985,"internal_node_id":"0.0-1.0-0.3-0.3","subject_id":"5f92002ccc33eb0ff3d749c5","study_id":"6259a891582d1b81b094d7e2","session_id":"6260b9280644c8db70cc982e","version":0},{"rt":122939,"response":{"P0_Q0":null,"multiQuestion":"sincere","Explanation":"Although Philip is attempting to be sarcastic, Eric does not know him well enough to see anything other than compliment."},"accuracy":[],"embed_level":"b","question_id":"5b","trial_type":"survey","trial_index":5,"time_elapsed":536959,"internal_node_id":"0.0-1.0-0.4-0.4","subject_id":"5f92002ccc33eb0ff3d749c5","study_id":"6259a891582d1b81b094d7e2","session_id":"6260b9280644c8db70cc982e","version":0},{"rt":77704,"response":{"P0_Q0":null,"multiQuestion":"sarcastic","Explanation":"David does not know the background of the two brothers. "},"accuracy":[],"embed_level":"c","question_id":"6c","trial_type":"survey","trial_index":6,"time_elapsed":614703,"internal_node_id":"0.0-1.0-0.5-0.5","subject_id":"5f92002ccc33eb0ff3d749c5","study_id":"6259a891582d1b81b094d7e2","session_id":"6260b9280644c8db70cc982e","version":0},{"rt":117072,"response":{"P0_Q0":null,"multiQuestion":"sarcastic","Explanation":"Ken is unaware that the two have repaired their relationship enough, since the fight, to be friends now. "},"accuracy":[],"embed_level":"b","question_id":"7b","trial_type":"survey","trial_index":7,"time_elapsed":731805,"internal_node_id":"0.0-1.0-0.6-0.6","subject_id":"5f92002ccc33eb0ff3d749c5","study_id":"6259a891582d1b81b094d7e2","session_id":"6260b9280644c8db70cc982e","version":0},{"rt":101610,"response":{"P0_Q0":null,"multiQuestion":"sincere","Explanation":"The answer, on its surface, was neutral, and the feeling was not conveyed over text. "},"accuracy":[],"embed_level":"a","question_id":"8a","trial_type":"survey","trial_index":8,"time_elapsed":833449,"internal_node_id":"0.0-1.0-0.7-0.7","subject_id":"5f92002ccc33eb0ff3d749c5","study_id":"6259a891582d1b81b094d7e2","session_id":"6260b9280644c8db70cc982e","version":0}]