[{"rt":5312,"stimulus":"<p>In this experiment, you will be presented with 8 scenarios, which you must read carefully.</p><p>After reading each scenario, you will be prompted two comprehension questions: a multiple choice question and a brief open answer question. You will be required to answer both questions for every scenario, meaning 16 questions in total.</p><p>To begin the experiment, hit the space bar.</p>","response":" ","trial_type":"html-keyboard-response","trial_index":0,"time_elapsed":5319,"internal_node_id":"0.0-0.0","subject_id":"5c46014e8ea58000016e3d9c","study_id":"6259a891582d1b81b094d7e2","session_id":"6260b938d883ce6386aed793","version":2},{"rt":31766,"response":{"P0_Q0":null,"multiQuestion":"sincere","Explanation":"an attempt to save feelings"},"accuracy":[],"embed_level":"a","question_id":"1a","trial_type":"survey","trial_index":1,"time_elapsed":37275,"internal_node_id":"0.0-1.0-0.0-0.0","subject_id":"5c46014e8ea58000016e3d9c","study_id":"6259a891582d1b81b094d7e2","session_id":"6260b938d883ce6386aed793","version":2},{"rt":41302,"response":{"P0_Q0":null,"multiQuestion":"sincere","Explanation":"no sign of sarcasm"},"accuracy":[],"embed_level":"b","question_id":"2b","trial_type":"survey","trial_index":2,"time_elapsed":78631,"internal_node_id":"0.0-1.0-0.1-0.1","subject_id":"5c46014e8ea58000016e3d9c","study_id":"6259a891582d1b81b094d7e2","session_id":"6260b938d883ce6386aed793","version":2},{"rt":48138,"response":{"P0_Q0":null,"multiQuestion":"sincere","Explanation":"meant as a joke"},"accuracy":[],"embed_level":"b","question_id":"3b","trial_type":"survey","trial_index":3,"time_elapsed":126887,"internal_node_id":"0.0-1.0-0.2-0.2","subject_id":"5c46014e8ea58000016e3d9c","study_id":"6259a891582d1b81b094d7e2","session_id":"6260b938d883ce6386aed793","version":2},{"rt":40824,"response":{"P0_Q0":null,"multiQuestion":"sincere","Explanation":"a genuine feeling"},"accuracy":[],"embed_level":"c","question_id":"4c","trial_type":"survey","trial_index":4,"time_elapsed":167787,"internal_node_id":"0.0-1.0-0.3-0.3","subject_id":"5c46014e8ea58000016e3d9c","study_id":"6259a891582d1b81b094d7e2","session_id":"6260b938d883ce6386aed793","version":2},{"rt":160646,"response":{"P0_Q0":null,"multiQuestion":"sincere","Explanation":"eric wouldn't get sarcasm from the note so seems more vindictive than sarcastic."},"accuracy":[],"embed_level":"a","question_id":"5a","trial_type":"survey","trial_index":5,"time_elapsed":328511,"internal_node_id":"0.0-1.0-0.4-0.4","subject_id":"5c46014e8ea58000016e3d9c","study_id":"6259a891582d1b81b094d7e2","session_id":"6260b938d883ce6386aed793","version":2},{"rt":79013,"response":{"P0_Q0":null,"multiQuestion":"sarcastic","Explanation":"can be seen as sarcasm"},"accuracy":[],"embed_level":"b","question_id":"6b","trial_type":"survey","trial_index":6,"time_elapsed":407599,"internal_node_id":"0.0-1.0-0.5-0.5","subject_id":"5c46014e8ea58000016e3d9c","study_id":"6259a891582d1b81b094d7e2","session_id":"6260b938d883ce6386aed793","version":2},{"rt":39702,"response":{"P0_Q0":null,"multiQuestion":"sincere","Explanation":"seems genuine"},"accuracy":[],"embed_level":"c","question_id":"7c","trial_type":"survey","trial_index":7,"time_elapsed":447373,"internal_node_id":"0.0-1.0-0.6-0.6","subject_id":"5c46014e8ea58000016e3d9c","study_id":"6259a891582d1b81b094d7e2","session_id":"6260b938d883ce6386aed793","version":2},{"rt":54838,"response":{"P0_Q0":null,"multiQuestion":"sincere","Explanation":"not sarcasm"},"accuracy":[],"embed_level":"c","question_id":"8c","trial_type":"survey","trial_index":8,"time_elapsed":502305,"internal_node_id":"0.0-1.0-0.7-0.7","subject_id":"5c46014e8ea58000016e3d9c","study_id":"6259a891582d1b81b094d7e2","session_id":"6260b938d883ce6386aed793","version":2}]