[{"rt":1599,"stimulus":"<p>In this experiment, you will be presented with 8 scenarios, which you must read carefully.</p><p>After reading each scenario, you will be prompted two comprehension questions: a multiple choice question and a brief open answer question. You will be required to answer both questions for every scenario, meaning 16 questions in total.</p><p>To begin the experiment, hit the space bar.</p>","response":" ","trial_type":"html-keyboard-response","trial_index":0,"time_elapsed":1603,"internal_node_id":"0.0-0.0","subject_id":"60d0de75282711f66dce1d3c","study_id":"6259a891582d1b81b094d7e2","session_id":"6260b8f77b4518096bb91f44","version":1},{"rt":59604,"response":{"P0_Q0":null,"multiQuestion":"sincere","Explanation":"She replied with a response that is of the same opinion as Olivia has about her hair, so she may not detect the sarcasm"},"accuracy":[],"embed_level":"b","question_id":"1b","trial_type":"survey","trial_index":1,"time_elapsed":61308,"internal_node_id":"0.0-1.0-0.0-0.0","subject_id":"60d0de75282711f66dce1d3c","study_id":"6259a891582d1b81b094d7e2","session_id":"6260b8f77b4518096bb91f44","version":1},{"rt":52740,"response":{"P0_Q0":null,"multiQuestion":"sarcastic","Explanation":"She knows that she could not literally lift a cow, but she could still detect her optimism"},"accuracy":[],"embed_level":"c","question_id":"2c","trial_type":"survey","trial_index":2,"time_elapsed":114132,"internal_node_id":"0.0-1.0-0.1-0.1","subject_id":"60d0de75282711f66dce1d3c","study_id":"6259a891582d1b81b094d7e2","session_id":"6260b8f77b4518096bb91f44","version":1},{"rt":26453,"response":{"P0_Q0":null,"multiQuestion":"sincere","Explanation":"Jack does not know he has made the error."},"accuracy":[],"embed_level":"a","question_id":"3a","trial_type":"survey","trial_index":3,"time_elapsed":140654,"internal_node_id":"0.0-1.0-0.2-0.2","subject_id":"60d0de75282711f66dce1d3c","study_id":"6259a891582d1b81b094d7e2","session_id":"6260b8f77b4518096bb91f44","version":1},{"rt":59146,"response":{"P0_Q0":null,"multiQuestion":"sarcastic","Explanation":"It is a new coworker who may not know about Margaret's history with dogs, so she won't expect any genuine fear"},"accuracy":[],"embed_level":"b","question_id":"4b","trial_type":"survey","trial_index":4,"time_elapsed":199826,"internal_node_id":"0.0-1.0-0.3-0.3","subject_id":"60d0de75282711f66dce1d3c","study_id":"6259a891582d1b81b094d7e2","session_id":"6260b8f77b4518096bb91f44","version":1},{"rt":58527,"response":{"P0_Q0":null,"multiQuestion":"sincere","Explanation":"Unless Eric heard Phillip's scoff under his breath, he will think it is a sincere comment"},"accuracy":[],"embed_level":"c","question_id":"5c","trial_type":"survey","trial_index":5,"time_elapsed":258422,"internal_node_id":"0.0-1.0-0.4-0.4","subject_id":"60d0de75282711f66dce1d3c","study_id":"6259a891582d1b81b094d7e2","session_id":"6260b8f77b4518096bb91f44","version":1},{"rt":45491,"response":{"P0_Q0":null,"multiQuestion":"sincere","Explanation":"He genuinely enjoys spending time with his brother."},"accuracy":[],"embed_level":"a","question_id":"6a","trial_type":"survey","trial_index":6,"time_elapsed":303958,"internal_node_id":"0.0-1.0-0.5-0.5","subject_id":"60d0de75282711f66dce1d3c","study_id":"6259a891582d1b81b094d7e2","session_id":"6260b8f77b4518096bb91f44","version":1},{"rt":33823,"response":{"P0_Q0":null,"multiQuestion":"sarcastic","Explanation":"After ending it with a big fight, you would not expect them to be on good terms still"},"accuracy":[],"embed_level":"a","question_id":"7a","trial_type":"survey","trial_index":7,"time_elapsed":337805,"internal_node_id":"0.0-1.0-0.6-0.6","subject_id":"60d0de75282711f66dce1d3c","study_id":"6259a891582d1b81b094d7e2","session_id":"6260b8f77b4518096bb91f44","version":1},{"rt":86927,"response":{"P0_Q0":null,"multiQuestion":"sincere","Explanation":"Elizabeth is likely oblivious to May's feelings about Kate"},"accuracy":[],"embed_level":"b","question_id":"8b","trial_type":"survey","trial_index":8,"time_elapsed":424752,"internal_node_id":"0.0-1.0-0.7-0.7","subject_id":"60d0de75282711f66dce1d3c","study_id":"6259a891582d1b81b094d7e2","session_id":"6260b8f77b4518096bb91f44","version":1}]