[{"rt":8428,"stimulus":"<p>In this experiment, you will be presented with 8 scenarios, which you must read carefully.</p><p>After reading each scenario, you will be prompted two comprehension questions: a multiple choice question and a brief open answer question. You will be required to answer both questions for every scenario, meaning 16 questions in total.</p><p>To begin the experiment, hit the space bar.</p>","response":" ","trial_type":"html-keyboard-response","trial_index":0,"time_elapsed":8433,"internal_node_id":"0.0-0.0","subject_id":"5fea2e6613597c51a166f24d","study_id":"6259a891582d1b81b094d7e2","session_id":"6260b92e3714a58012da8049","version":1},{"rt":128469,"response":{"P0_Q0":null,"multiQuestion":"sincere","Explanation":"There is no cause to think it is sarcasm"},"accuracy":[],"embed_level":"b","question_id":"1b","trial_type":"survey","trial_index":1,"time_elapsed":137101,"internal_node_id":"0.0-1.0-0.0-0.0","subject_id":"5fea2e6613597c51a166f24d","study_id":"6259a891582d1b81b094d7e2","session_id":"6260b92e3714a58012da8049","version":1},{"rt":182225,"response":{"P0_Q0":null,"multiQuestion":"sincere","Explanation":"It is a positive response that shows she is happy with the workout."},"accuracy":[],"embed_level":"c","question_id":"2c","trial_type":"survey","trial_index":2,"time_elapsed":319450,"internal_node_id":"0.0-1.0-0.1-0.1","subject_id":"5fea2e6613597c51a166f24d","study_id":"6259a891582d1b81b094d7e2","session_id":"6260b92e3714a58012da8049","version":1},{"rt":91103,"response":{"P0_Q0":null,"multiQuestion":"sincere","Explanation":"Although the cake was not good, she is trying to spare Jack's feelings."},"accuracy":[],"embed_level":"a","question_id":"3a","trial_type":"survey","trial_index":3,"time_elapsed":410640,"internal_node_id":"0.0-1.0-0.2-0.2","subject_id":"5fea2e6613597c51a166f24d","study_id":"6259a891582d1b81b094d7e2","session_id":"6260b92e3714a58012da8049","version":1},{"rt":78987,"response":{"P0_Q0":null,"multiQuestion":"sincere","Explanation":"She is genuinely scared by the dog."},"accuracy":[],"embed_level":"b","question_id":"4b","trial_type":"survey","trial_index":4,"time_elapsed":489746,"internal_node_id":"0.0-1.0-0.3-0.3","subject_id":"5fea2e6613597c51a166f24d","study_id":"6259a891582d1b81b094d7e2","session_id":"6260b92e3714a58012da8049","version":1},{"rt":152063,"response":{"P0_Q0":null,"multiQuestion":"sincere","Explanation":"Even though Philip was lying, there is no reason for Eric to suspect that, so he would not tale the comment as sarcasm."},"accuracy":[],"embed_level":"c","question_id":"5c","trial_type":"survey","trial_index":5,"time_elapsed":641866,"internal_node_id":"0.0-1.0-0.4-0.4","subject_id":"5fea2e6613597c51a166f24d","study_id":"6259a891582d1b81b094d7e2","session_id":"6260b92e3714a58012da8049","version":1},{"rt":149735,"response":{"P0_Q0":null,"multiQuestion":"sincere","Explanation":"An argument would not mean Jeremy hated Spencer, so it is sincere."},"accuracy":[],"embed_level":"a","question_id":"6a","trial_type":"survey","trial_index":6,"time_elapsed":791654,"internal_node_id":"0.0-1.0-0.5-0.5","subject_id":"5fea2e6613597c51a166f24d","study_id":"6259a891582d1b81b094d7e2","session_id":"6260b92e3714a58012da8049","version":1},{"rt":70568,"response":{"P0_Q0":null,"multiQuestion":"sincere","Explanation":"The reply is not acerbic enough to be sarcasm."},"accuracy":[],"embed_level":"a","question_id":"7a","trial_type":"survey","trial_index":7,"time_elapsed":862313,"internal_node_id":"0.0-1.0-0.6-0.6","subject_id":"5fea2e6613597c51a166f24d","study_id":"6259a891582d1b81b094d7e2","session_id":"6260b92e3714a58012da8049","version":1},{"rt":78745,"response":{"P0_Q0":null,"multiQuestion":"sincere","Explanation":"There was no bitterness or edge in the reply"},"accuracy":[],"embed_level":"b","question_id":"8b","trial_type":"survey","trial_index":8,"time_elapsed":941123,"internal_node_id":"0.0-1.0-0.7-0.7","subject_id":"5fea2e6613597c51a166f24d","study_id":"6259a891582d1b81b094d7e2","session_id":"6260b92e3714a58012da8049","version":1}]