[{"rt":6605,"stimulus":"<p>In this experiment, you will be presented with 8 scenarios, which you must read carefully.</p><p>After reading each scenario, you will be prompted two comprehension questions: a multiple choice question and a brief open answer question. You will be required to answer both questions for every scenario, meaning 16 questions in total.</p><p>To begin the experiment, hit the space bar.</p>","response":" ","trial_type":"html-keyboard-response","trial_index":0,"time_elapsed":6610,"internal_node_id":"0.0-0.0","subject_id":"61fa908cd42cb19beec4916c","study_id":"6259a891582d1b81b094d7e2","session_id":"62606d6cb0f0ca9d360eceec","version":0},{"rt":65846,"response":{"P0_Q0":null,"multiQuestion":"sarcastic","Explanation":"She doesnt like that their styles are similar but is telling her friend she likes it to avoid a argument"},"accuracy":[],"embed_level":"c","question_id":"1c","trial_type":"survey","trial_index":1,"time_elapsed":72549,"internal_node_id":"0.0-1.0-0.0-0.0","subject_id":"61fa908cd42cb19beec4916c","study_id":"6259a891582d1b81b094d7e2","session_id":"62606d6cb0f0ca9d360eceec","version":0},{"rt":42073,"response":{"P0_Q0":null,"multiQuestion":"sarcastic","Explanation":"A person couldnt actually lift a cow, but she is feeling strong"},"accuracy":[],"embed_level":"a","question_id":"2a","trial_type":"survey","trial_index":2,"time_elapsed":114645,"internal_node_id":"0.0-1.0-0.1-0.1","subject_id":"61fa908cd42cb19beec4916c","study_id":"6259a891582d1b81b094d7e2","session_id":"62606d6cb0f0ca9d360eceec","version":0},{"rt":41984,"response":{"P0_Q0":null,"multiQuestion":"sincere","Explanation":"Shes trying not to hurt jacks feelings so she lied"},"accuracy":[],"embed_level":"c","question_id":"3c","trial_type":"survey","trial_index":3,"time_elapsed":156658,"internal_node_id":"0.0-1.0-0.2-0.2","subject_id":"61fa908cd42cb19beec4916c","study_id":"6259a891582d1b81b094d7e2","session_id":"62606d6cb0f0ca9d360eceec","version":0},{"rt":17858,"response":{"P0_Q0":null,"multiQuestion":"sincere","Explanation":"She is scared of dogs"},"accuracy":[],"embed_level":"a","question_id":"4a","trial_type":"survey","trial_index":4,"time_elapsed":174549,"internal_node_id":"0.0-1.0-0.3-0.3","subject_id":"61fa908cd42cb19beec4916c","study_id":"6259a891582d1b81b094d7e2","session_id":"62606d6cb0f0ca9d360eceec","version":0},{"rt":63711,"response":{"P0_Q0":null,"multiQuestion":"sarcastic","Explanation":"He hated the jacket but only said he liked it after talking behind erics back and berating him. "},"accuracy":[],"embed_level":"b","question_id":"5b","trial_type":"survey","trial_index":5,"time_elapsed":238287,"internal_node_id":"0.0-1.0-0.4-0.4","subject_id":"61fa908cd42cb19beec4916c","study_id":"6259a891582d1b81b094d7e2","session_id":"62606d6cb0f0ca9d360eceec","version":0},{"rt":37089,"response":{"P0_Q0":null,"multiQuestion":"sincere","Explanation":"They genuinely care for each other and hang out"},"accuracy":[],"embed_level":"c","question_id":"6c","trial_type":"survey","trial_index":6,"time_elapsed":275407,"internal_node_id":"0.0-1.0-0.5-0.5","subject_id":"61fa908cd42cb19beec4916c","study_id":"6259a891582d1b81b094d7e2","session_id":"62606d6cb0f0ca9d360eceec","version":0},{"rt":44707,"response":{"P0_Q0":null,"multiQuestion":"sincere","Explanation":"She considers him a good friend and talks to him regulary"},"accuracy":[],"embed_level":"b","question_id":"7b","trial_type":"survey","trial_index":7,"time_elapsed":320139,"internal_node_id":"0.0-1.0-0.6-0.6","subject_id":"61fa908cd42cb19beec4916c","study_id":"6259a891582d1b81b094d7e2","session_id":"62606d6cb0f0ca9d360eceec","version":0},{"rt":143713,"response":{"P0_Q0":null,"multiQuestion":"sincere","Explanation":"She enjoyed spending time with her crush but was disappointed she was already in a relationship"},"accuracy":[],"embed_level":"a","question_id":"8a","trial_type":"survey","trial_index":8,"time_elapsed":463882,"internal_node_id":"0.0-1.0-0.7-0.7","subject_id":"61fa908cd42cb19beec4916c","study_id":"6259a891582d1b81b094d7e2","session_id":"62606d6cb0f0ca9d360eceec","version":0}]