[{"rt":16744,"stimulus":"<p>In this experiment, you will be presented with 8 scenarios, which you must read carefully.</p><p>After reading each scenario, you will be prompted two comprehension questions: a multiple choice question and a brief open answer question. You will be required to answer both questions for every scenario, meaning 16 questions in total.</p><p>To begin the experiment, hit the space bar.</p>","response":" ","trial_type":"html-keyboard-response","trial_index":0,"time_elapsed":16749,"internal_node_id":"0.0-0.0","subject_id":"5c8b065abd96ce0001947d1b","study_id":"6259a891582d1b81b094d7e2","session_id":"6260b9533622eda77b4db83f","version":1},{"rt":79733,"response":{"P0_Q0":null,"multiQuestion":"sincere","Explanation":"I would think although she is annoyed that she has copied her, it's her best friend and so she wants her friend to be happy and maybe also sees it as a compliment."},"accuracy":[],"embed_level":"b","question_id":"1b","trial_type":"survey","trial_index":1,"time_elapsed":96586,"internal_node_id":"0.0-1.0-0.0-0.0","subject_id":"5c8b065abd96ce0001947d1b","study_id":"6259a891582d1b81b094d7e2","session_id":"6260b9533622eda77b4db83f","version":1},{"rt":102539,"response":{"P0_Q0":null,"multiQuestion":"sincere","Explanation":"I think it is obvious Catherine is pleased with her progress and that she is ust being mega enthusiastic after overcoming her challenges."},"accuracy":[],"embed_level":"c","question_id":"2c","trial_type":"survey","trial_index":2,"time_elapsed":199161,"internal_node_id":"0.0-1.0-0.1-0.1","subject_id":"5c8b065abd96ce0001947d1b","study_id":"6259a891582d1b81b094d7e2","session_id":"6260b9533622eda77b4db83f","version":1},{"rt":52564,"response":{"P0_Q0":null,"multiQuestion":"sincere","Explanation":"I would think, even if Anastasia thought it was disgusting, she was probably extremely grateful for the gesture."},"accuracy":[],"embed_level":"a","question_id":"3a","trial_type":"survey","trial_index":3,"time_elapsed":251777,"internal_node_id":"0.0-1.0-0.2-0.2","subject_id":"5c8b065abd96ce0001947d1b","study_id":"6259a891582d1b81b094d7e2","session_id":"6260b9533622eda77b4db83f","version":1},{"rt":76403,"response":{"P0_Q0":null,"multiQuestion":"sarcastic","Explanation":"As most people have said her dog is cute, I think she would think she was being sarcastic, well sarcastically humerous maybe."},"accuracy":[],"embed_level":"b","question_id":"4b","trial_type":"survey","trial_index":4,"time_elapsed":328232,"internal_node_id":"0.0-1.0-0.3-0.3","subject_id":"5c8b065abd96ce0001947d1b","study_id":"6259a891582d1b81b094d7e2","session_id":"6260b9533622eda77b4db83f","version":1},{"rt":97662,"response":{"P0_Q0":null,"multiQuestion":"sarcastic","Explanation":"I think it would've been apparent that Phillip had a distaste for the jacket, especially with the mumbled scoff, so I think Eric would probably see it as sarcastic."},"accuracy":[],"embed_level":"c","question_id":"5c","trial_type":"survey","trial_index":5,"time_elapsed":425943,"internal_node_id":"0.0-1.0-0.4-0.4","subject_id":"5c8b065abd96ce0001947d1b","study_id":"6259a891582d1b81b094d7e2","session_id":"6260b9533622eda77b4db83f","version":1},{"rt":94959,"response":{"P0_Q0":null,"multiQuestion":"sarcastic","Explanation":"He'd just seen them arguing and probably assumed they don't get along very well, so he might well think he is being sarcastic."},"accuracy":[],"embed_level":"a","question_id":"6a","trial_type":"survey","trial_index":6,"time_elapsed":520956,"internal_node_id":"0.0-1.0-0.5-0.5","subject_id":"5c8b065abd96ce0001947d1b","study_id":"6259a891582d1b81b094d7e2","session_id":"6260b9533622eda77b4db83f","version":1},{"rt":156079,"response":{"P0_Q0":null,"multiQuestion":"sarcastic","Explanation":"As Ken hasn't spoken to her since the break up, he will probably not know that they have remained friends and therefore assume she is being sarcastic."},"accuracy":[],"embed_level":"a","question_id":"7a","trial_type":"survey","trial_index":7,"time_elapsed":677106,"internal_node_id":"0.0-1.0-0.6-0.6","subject_id":"5c8b065abd96ce0001947d1b","study_id":"6259a891582d1b81b094d7e2","session_id":"6260b9533622eda77b4db83f","version":1},{"rt":138393,"response":{"P0_Q0":null,"multiQuestion":"sincere","Explanation":"She has no reason to doubt it, and although it is short and in no way, elaborate, I don't feel she would have reason to think it was anything but sincere."},"accuracy":[],"embed_level":"b","question_id":"8b","trial_type":"survey","trial_index":8,"time_elapsed":815544,"internal_node_id":"0.0-1.0-0.7-0.7","subject_id":"5c8b065abd96ce0001947d1b","study_id":"6259a891582d1b81b094d7e2","session_id":"6260b9533622eda77b4db83f","version":1}]