[{"rt":11430,"stimulus":"<p>In this experiment, you will be presented with 8 scenarios, which you must read carefully.</p><p>After reading each scenario, you will be prompted two comprehension questions: a multiple choice question and a brief open answer question. You will be required to answer both questions for every scenario, meaning 16 questions in total.</p><p>To begin the experiment, hit the space bar.</p>","response":" ","trial_type":"html-keyboard-response","trial_index":0,"time_elapsed":11436,"internal_node_id":"0.0-0.0","subject_id":"5e89ba09ec9b3364b1fc0bd1","study_id":"6259a891582d1b81b094d7e2","session_id":"6260b8f594d7496f211afb79","version":0},{"rt":110434,"response":{"P0_Q0":null,"multiQuestion":"sincere","Explanation":"though being annoyed by being copies she obviously likes the style as she had it done to herself "},"accuracy":[],"embed_level":"c","question_id":"1c","trial_type":"survey","trial_index":1,"time_elapsed":121931,"internal_node_id":"0.0-1.0-0.0-0.0","subject_id":"5e89ba09ec9b3364b1fc0bd1","study_id":"6259a891582d1b81b094d7e2","session_id":"6260b8f594d7496f211afb79","version":0},{"rt":67217,"response":{"P0_Q0":null,"multiQuestion":"sincere","Explanation":"she is using humour to express her positivity at. her progress"},"accuracy":[],"embed_level":"a","question_id":"2a","trial_type":"survey","trial_index":2,"time_elapsed":189171,"internal_node_id":"0.0-1.0-0.1-0.1","subject_id":"5e89ba09ec9b3364b1fc0bd1","study_id":"6259a891582d1b81b094d7e2","session_id":"6260b8f594d7496f211afb79","version":0},{"rt":64054,"response":{"P0_Q0":null,"multiQuestion":"sincere","Explanation":"she appreciates the effort jack made and is using a white lie to save his feelings "},"accuracy":[],"embed_level":"c","question_id":"3c","trial_type":"survey","trial_index":3,"time_elapsed":253262,"internal_node_id":"0.0-1.0-0.2-0.2","subject_id":"5e89ba09ec9b3364b1fc0bd1","study_id":"6259a891582d1b81b094d7e2","session_id":"6260b8f594d7496f211afb79","version":0},{"rt":31916,"response":{"P0_Q0":null,"multiQuestion":"sincere","Explanation":"just expressing how she feels"},"accuracy":[],"embed_level":"a","question_id":"4a","trial_type":"survey","trial_index":4,"time_elapsed":285207,"internal_node_id":"0.0-1.0-0.3-0.3","subject_id":"5e89ba09ec9b3364b1fc0bd1","study_id":"6259a891582d1b81b094d7e2","session_id":"6260b8f594d7496f211afb79","version":0},{"rt":49075,"response":{"P0_Q0":null,"multiQuestion":"sincere","Explanation":"no reason to think otherwise"},"accuracy":[],"embed_level":"b","question_id":"5b","trial_type":"survey","trial_index":5,"time_elapsed":334311,"internal_node_id":"0.0-1.0-0.4-0.4","subject_id":"5e89ba09ec9b3364b1fc0bd1","study_id":"6259a891582d1b81b094d7e2","session_id":"6260b8f594d7496f211afb79","version":0},{"rt":71788,"response":{"P0_Q0":null,"multiQuestion":"sincere","Explanation":"you can appreciate siblings even when you fall out "},"accuracy":[],"embed_level":"c","question_id":"6c","trial_type":"survey","trial_index":6,"time_elapsed":406127,"internal_node_id":"0.0-1.0-0.5-0.5","subject_id":"5e89ba09ec9b3364b1fc0bd1","study_id":"6259a891582d1b81b094d7e2","session_id":"6260b8f594d7496f211afb79","version":0},{"rt":33800,"response":{"P0_Q0":null,"multiQuestion":"sincere","Explanation":"its how she feels"},"accuracy":[],"embed_level":"b","question_id":"7b","trial_type":"survey","trial_index":7,"time_elapsed":439950,"internal_node_id":"0.0-1.0-0.6-0.6","subject_id":"5e89ba09ec9b3364b1fc0bd1","study_id":"6259a891582d1b81b094d7e2","session_id":"6260b8f594d7496f211afb79","version":0},{"rt":60996,"response":{"P0_Q0":null,"multiQuestion":"sincere","Explanation":"beth doset know may was goig to confess feelings but backed down "},"accuracy":[],"embed_level":"a","question_id":"8a","trial_type":"survey","trial_index":8,"time_elapsed":500975,"internal_node_id":"0.0-1.0-0.7-0.7","subject_id":"5e89ba09ec9b3364b1fc0bd1","study_id":"6259a891582d1b81b094d7e2","session_id":"6260b8f594d7496f211afb79","version":0}]