[{"rt":13780,"stimulus":"<p>In this experiment, you will be presented with 8 scenarios, which you must read carefully.</p><p>After reading each scenario, you will be prompted two comprehension questions: a multiple choice question and a brief open answer question. You will be required to answer both questions for every scenario, meaning 16 questions in total.</p><p>To begin the experiment, hit the space bar.</p>","response":" ","trial_type":"html-keyboard-response","trial_index":0,"time_elapsed":13787,"internal_node_id":"0.0-0.0","subject_id":"5bf077098500d800010a99e0","study_id":"6259a891582d1b81b094d7e2","session_id":"6260b9492bb154d1e9d2e8a7","version":2},{"rt":45489,"response":{"P0_Q0":null,"multiQuestion":"sincere","Explanation":"it seems genuine"},"accuracy":[],"embed_level":"a","question_id":"1a","trial_type":"survey","trial_index":1,"time_elapsed":59365,"internal_node_id":"0.0-1.0-0.0-0.0","subject_id":"5bf077098500d800010a99e0","study_id":"6259a891582d1b81b094d7e2","session_id":"6260b9492bb154d1e9d2e8a7","version":2},{"rt":52419,"response":{"P0_Q0":null,"multiQuestion":"sincere","Explanation":"seems more of a funny answer"},"accuracy":[],"embed_level":"b","question_id":"2b","trial_type":"survey","trial_index":2,"time_elapsed":111823,"internal_node_id":"0.0-1.0-0.1-0.1","subject_id":"5bf077098500d800010a99e0","study_id":"6259a891582d1b81b094d7e2","session_id":"6260b9492bb154d1e9d2e8a7","version":2},{"rt":45108,"response":{"P0_Q0":null,"multiQuestion":"sincere","Explanation":"she was being polite"},"accuracy":[],"embed_level":"b","question_id":"3b","trial_type":"survey","trial_index":3,"time_elapsed":156982,"internal_node_id":"0.0-1.0-0.2-0.2","subject_id":"5bf077098500d800010a99e0","study_id":"6259a891582d1b81b094d7e2","session_id":"6260b9492bb154d1e9d2e8a7","version":2},{"rt":56362,"response":{"P0_Q0":null,"multiQuestion":"sincere","Explanation":"its her hang up showing"},"accuracy":[],"embed_level":"c","question_id":"4c","trial_type":"survey","trial_index":4,"time_elapsed":213381,"internal_node_id":"0.0-1.0-0.3-0.3","subject_id":"5bf077098500d800010a99e0","study_id":"6259a891582d1b81b094d7e2","session_id":"6260b9492bb154d1e9d2e8a7","version":2},{"rt":48948,"response":{"P0_Q0":null,"multiQuestion":"sarcastic","Explanation":"it was a throw away remark"},"accuracy":[],"embed_level":"a","question_id":"5a","trial_type":"survey","trial_index":5,"time_elapsed":262360,"internal_node_id":"0.0-1.0-0.4-0.4","subject_id":"5bf077098500d800010a99e0","study_id":"6259a891582d1b81b094d7e2","session_id":"6260b9492bb154d1e9d2e8a7","version":2},{"rt":44394,"response":{"P0_Q0":null,"multiQuestion":"sarcastic","Explanation":"so why do they fight?"},"accuracy":[],"embed_level":"b","question_id":"6b","trial_type":"survey","trial_index":6,"time_elapsed":306802,"internal_node_id":"0.0-1.0-0.5-0.5","subject_id":"5bf077098500d800010a99e0","study_id":"6259a891582d1b81b094d7e2","session_id":"6260b9492bb154d1e9d2e8a7","version":2},{"rt":55856,"response":{"P0_Q0":null,"multiQuestion":"sincere","Explanation":"she is overlooking the ending of relationship"},"accuracy":[],"embed_level":"c","question_id":"7c","trial_type":"survey","trial_index":7,"time_elapsed":362703,"internal_node_id":"0.0-1.0-0.6-0.6","subject_id":"5bf077098500d800010a99e0","study_id":"6259a891582d1b81b094d7e2","session_id":"6260b9492bb154d1e9d2e8a7","version":2},{"rt":64994,"response":{"P0_Q0":null,"multiQuestion":"sincere","Explanation":"most of trip was nice"},"accuracy":[],"embed_level":"c","question_id":"8c","trial_type":"survey","trial_index":8,"time_elapsed":427731,"internal_node_id":"0.0-1.0-0.7-0.7","subject_id":"5bf077098500d800010a99e0","study_id":"6259a891582d1b81b094d7e2","session_id":"6260b9492bb154d1e9d2e8a7","version":2}]