[{"rt":6812,"stimulus":"<p>In this experiment, you will be presented with 8 scenarios, which you must read carefully.</p><p>After reading each scenario, you will be prompted two comprehension questions: a multiple choice question and a brief open answer question. You will be required to answer both questions for every scenario, meaning 16 questions in total.</p><p>To begin the experiment, hit the space bar.</p>","response":" ","trial_type":"html-keyboard-response","trial_index":0,"time_elapsed":6829,"internal_node_id":"0.0-0.0","subject_id":"61087fd5b50f25ac5e58f455","study_id":"6259a891582d1b81b094d7e2","session_id":"6260b90fe7e7c6150f5ec9dc","version":2},{"rt":42935,"response":{"P0_Q0":null,"multiQuestion":"sincere","Explanation":"They are good friends and there are lots of exclamation marks. It seems like Alice meant well and meant not to hurt her friend's feelings."},"accuracy":[],"embed_level":"a","question_id":"1a","trial_type":"survey","trial_index":1,"time_elapsed":49891,"internal_node_id":"0.0-1.0-0.0-0.0","subject_id":"61087fd5b50f25ac5e58f455","study_id":"6259a891582d1b81b094d7e2","session_id":"6260b90fe7e7c6150f5ec9dc","version":2},{"rt":35596,"response":{"P0_Q0":null,"multiQuestion":"sincere","Explanation":"I think her answer is sincere, though joking."},"accuracy":[],"embed_level":"b","question_id":"2b","trial_type":"survey","trial_index":2,"time_elapsed":85507,"internal_node_id":"0.0-1.0-0.1-0.1","subject_id":"61087fd5b50f25ac5e58f455","study_id":"6259a891582d1b81b094d7e2","session_id":"6260b90fe7e7c6150f5ec9dc","version":2},{"rt":60587,"response":{"P0_Q0":null,"multiQuestion":"sincere","Explanation":"It seems like Anastasia meant to be nice to her friend."},"accuracy":[],"embed_level":"b","question_id":"3b","trial_type":"survey","trial_index":3,"time_elapsed":146129,"internal_node_id":"0.0-1.0-0.2-0.2","subject_id":"61087fd5b50f25ac5e58f455","study_id":"6259a891582d1b81b094d7e2","session_id":"6260b90fe7e7c6150f5ec9dc","version":2},{"rt":28456,"response":{"P0_Q0":null,"multiQuestion":"sincere","Explanation":"Margaret is sincerely afraid of dogs and seemed like she meant what she said."},"accuracy":[],"embed_level":"c","question_id":"4c","trial_type":"survey","trial_index":4,"time_elapsed":174629,"internal_node_id":"0.0-1.0-0.3-0.3","subject_id":"61087fd5b50f25ac5e58f455","study_id":"6259a891582d1b81b094d7e2","session_id":"6260b90fe7e7c6150f5ec9dc","version":2},{"rt":34101,"response":{"P0_Q0":null,"multiQuestion":"sarcastic","Explanation":"This seems like an extraneous thing to say."},"accuracy":[],"embed_level":"a","question_id":"5a","trial_type":"survey","trial_index":5,"time_elapsed":208753,"internal_node_id":"0.0-1.0-0.4-0.4","subject_id":"61087fd5b50f25ac5e58f455","study_id":"6259a891582d1b81b094d7e2","session_id":"6260b90fe7e7c6150f5ec9dc","version":2},{"rt":39331,"response":{"P0_Q0":null,"multiQuestion":"sarcastic","Explanation":"This phrase comes off as sarcasm, especially because the two boys fight a lot."},"accuracy":[],"embed_level":"b","question_id":"6b","trial_type":"survey","trial_index":6,"time_elapsed":248119,"internal_node_id":"0.0-1.0-0.5-0.5","subject_id":"61087fd5b50f25ac5e58f455","study_id":"6259a891582d1b81b094d7e2","session_id":"6260b90fe7e7c6150f5ec9dc","version":2},{"rt":32442,"response":{"P0_Q0":null,"multiQuestion":"sincere","Explanation":"The paragraph says that Ana still thinks well of James, so her saying that he is a great person is not a surprise."},"accuracy":[],"embed_level":"c","question_id":"7c","trial_type":"survey","trial_index":7,"time_elapsed":280583,"internal_node_id":"0.0-1.0-0.6-0.6","subject_id":"61087fd5b50f25ac5e58f455","study_id":"6259a891582d1b81b094d7e2","session_id":"6260b90fe7e7c6150f5ec9dc","version":2},{"rt":45115,"response":{"P0_Q0":null,"multiQuestion":"sarcastic","Explanation":"May's response seems curt and more sarcastic knowing the background of the story."},"accuracy":[],"embed_level":"c","question_id":"8c","trial_type":"survey","trial_index":8,"time_elapsed":325732,"internal_node_id":"0.0-1.0-0.7-0.7","subject_id":"61087fd5b50f25ac5e58f455","study_id":"6259a891582d1b81b094d7e2","session_id":"6260b90fe7e7c6150f5ec9dc","version":2}]