[{"rt":13053,"stimulus":"<p>In this experiment, you will be presented with 8 scenarios, which you must read carefully.</p><p>After reading each scenario, you will be prompted two comprehension questions: a multiple choice question and a brief open answer question. You will be required to answer both questions for every scenario, meaning 16 questions in total.</p><p>To begin the experiment, hit the space bar.</p>","response":" ","trial_type":"html-keyboard-response","trial_index":0,"time_elapsed":13057,"internal_node_id":"0.0-0.0","subject_id":"58584aa98604ae000165e633","study_id":"6259a891582d1b81b094d7e2","session_id":"6260b8f336d173b72d3b00a0","version":0},{"rt":91228,"response":{"P0_Q0":null,"multiQuestion":"sincere","Explanation":"She has no idea that copying her friend would dent her friend's individuality "},"accuracy":[],"embed_level":"c","question_id":"1c","trial_type":"survey","trial_index":1,"time_elapsed":104409,"internal_node_id":"0.0-1.0-0.0-0.0","subject_id":"58584aa98604ae000165e633","study_id":"6259a891582d1b81b094d7e2","session_id":"6260b8f336d173b72d3b00a0","version":0},{"rt":93466,"response":{"P0_Q0":null,"multiQuestion":"sincere","Explanation":"catherine is excited, she has no inkling of her friend's doubts she is just happy to have performed well"},"accuracy":[],"embed_level":"a","question_id":"2a","trial_type":"survey","trial_index":2,"time_elapsed":197918,"internal_node_id":"0.0-1.0-0.1-0.1","subject_id":"58584aa98604ae000165e633","study_id":"6259a891582d1b81b094d7e2","session_id":"6260b8f336d173b72d3b00a0","version":0},{"rt":99014,"response":{"P0_Q0":null,"multiQuestion":"sarcastic","Explanation":"jack knows deep down he screwed up, he is not fooled by the praise, he knows his mate loves him"},"accuracy":[],"embed_level":"c","question_id":"3c","trial_type":"survey","trial_index":3,"time_elapsed":296969,"internal_node_id":"0.0-1.0-0.2-0.2","subject_id":"58584aa98604ae000165e633","study_id":"6259a891582d1b81b094d7e2","session_id":"6260b8f336d173b72d3b00a0","version":0},{"rt":63751,"response":{"P0_Q0":null,"multiQuestion":"sincere","Explanation":"she can see her friend has a negative perception of her dog no matter how cute he is"},"accuracy":[],"embed_level":"a","question_id":"4a","trial_type":"survey","trial_index":4,"time_elapsed":360756,"internal_node_id":"0.0-1.0-0.3-0.3","subject_id":"58584aa98604ae000165e633","study_id":"6259a891582d1b81b094d7e2","session_id":"6260b8f336d173b72d3b00a0","version":0},{"rt":88387,"response":{"P0_Q0":null,"multiQuestion":"sincere","Explanation":"he does not want eric to feel he has screwed up, he is kind enough to praise the thing he has serious doubts about"},"accuracy":[],"embed_level":"b","question_id":"5b","trial_type":"survey","trial_index":5,"time_elapsed":449177,"internal_node_id":"0.0-1.0-0.4-0.4","subject_id":"58584aa98604ae000165e633","study_id":"6259a891582d1b81b094d7e2","session_id":"6260b8f336d173b72d3b00a0","version":0},{"rt":75665,"response":{"P0_Q0":null,"multiQuestion":"sincere","Explanation":"he cares about spencer despite the things he is noon board with"},"accuracy":[],"embed_level":"c","question_id":"6c","trial_type":"survey","trial_index":6,"time_elapsed":524871,"internal_node_id":"0.0-1.0-0.5-0.5","subject_id":"58584aa98604ae000165e633","study_id":"6259a891582d1b81b094d7e2","session_id":"6260b8f336d173b72d3b00a0","version":0},{"rt":73992,"response":{"P0_Q0":null,"multiQuestion":"sincere","Explanation":"she cARES about him, she will not treat him badly"},"accuracy":[],"embed_level":"b","question_id":"7b","trial_type":"survey","trial_index":7,"time_elapsed":598895,"internal_node_id":"0.0-1.0-0.6-0.6","subject_id":"58584aa98604ae000165e633","study_id":"6259a891582d1b81b094d7e2","session_id":"6260b8f336d173b72d3b00a0","version":0},{"rt":69891,"response":{"P0_Q0":null,"multiQuestion":"sincere","Explanation":"it WAS nice, but the outcome may be sad for may"},"accuracy":[],"embed_level":"a","question_id":"8a","trial_type":"survey","trial_index":8,"time_elapsed":668825,"internal_node_id":"0.0-1.0-0.7-0.7","subject_id":"58584aa98604ae000165e633","study_id":"6259a891582d1b81b094d7e2","session_id":"6260b8f336d173b72d3b00a0","version":0}]