[{"rt":13146,"stimulus":"<p>In this experiment, you will be presented with 8 scenarios, which you must read carefully.</p><p>After reading each scenario, you will be prompted two comprehension questions: a multiple choice question and a brief open answer question. You will be required to answer both questions for every scenario, meaning 16 questions in total.</p><p>To begin the experiment, hit the space bar.</p>","response":" ","trial_type":"html-keyboard-response","trial_index":0,"time_elapsed":13148,"internal_node_id":"0.0-0.0","subject_id":"58b718c7e38022000152c828","study_id":"6259a891582d1b81b094d7e2","session_id":"62606cfe032cf5d66f6d8419","version":0},{"rt":69416,"response":{"P0_Q0":null,"multiQuestion":"sincere","Explanation":"It was just a text, and there were no hints at it being sarcasm"},"accuracy":[],"embed_level":"c","question_id":"1c","trial_type":"survey","trial_index":1,"time_elapsed":82600,"internal_node_id":"0.0-1.0-0.0-0.0","subject_id":"58b718c7e38022000152c828","study_id":"6259a891582d1b81b094d7e2","session_id":"62606cfe032cf5d66f6d8419","version":0},{"rt":38584,"response":{"P0_Q0":null,"multiQuestion":"sincere","Explanation":"Again, just a text, no indications of sarcasm present"},"accuracy":[],"embed_level":"a","question_id":"2a","trial_type":"survey","trial_index":2,"time_elapsed":121204,"internal_node_id":"0.0-1.0-0.1-0.1","subject_id":"58b718c7e38022000152c828","study_id":"6259a891582d1b81b094d7e2","session_id":"62606cfe032cf5d66f6d8419","version":0},{"rt":40192,"response":{"P0_Q0":null,"multiQuestion":"sincere","Explanation":"Again, text, no hints at sarcasm"},"accuracy":[],"embed_level":"c","question_id":"3c","trial_type":"survey","trial_index":3,"time_elapsed":161409,"internal_node_id":"0.0-1.0-0.2-0.2","subject_id":"58b718c7e38022000152c828","study_id":"6259a891582d1b81b094d7e2","session_id":"62606cfe032cf5d66f6d8419","version":0},{"rt":71013,"response":{"P0_Q0":null,"multiQuestion":"sarcastic","Explanation":"Since everyone thinks the puppy is cute, and it's very unlikely anyone is afraid of puppies, the most likely assumption is that the text is sarcastic"},"accuracy":[],"embed_level":"a","question_id":"4a","trial_type":"survey","trial_index":4,"time_elapsed":232444,"internal_node_id":"0.0-1.0-0.3-0.3","subject_id":"58b718c7e38022000152c828","study_id":"6259a891582d1b81b094d7e2","session_id":"62606cfe032cf5d66f6d8419","version":0},{"rt":81131,"response":{"P0_Q0":null,"multiQuestion":"sincere","Explanation":"No hints at it being sarcastic, unless Eric knew beforehand that the jacket wasn't the best, in which case he would take it as being sarcasm"},"accuracy":[],"embed_level":"b","question_id":"5b","trial_type":"survey","trial_index":5,"time_elapsed":313597,"internal_node_id":"0.0-1.0-0.4-0.4","subject_id":"58b718c7e38022000152c828","study_id":"6259a891582d1b81b094d7e2","session_id":"62606cfe032cf5d66f6d8419","version":0},{"rt":53368,"response":{"P0_Q0":null,"multiQuestion":"sarcastic","Explanation":"Because it is unlikely that they have such a good relationship, so it is more likely that it is sarcasm"},"accuracy":[],"embed_level":"c","question_id":"6c","trial_type":"survey","trial_index":6,"time_elapsed":366987,"internal_node_id":"0.0-1.0-0.5-0.5","subject_id":"58b718c7e38022000152c828","study_id":"6259a891582d1b81b094d7e2","session_id":"62606cfe032cf5d66f6d8419","version":0},{"rt":51723,"response":{"P0_Q0":null,"multiQuestion":"sincere","Explanation":"No hints at sarcasm, although whether it would be taken as sarcasm depends on Ana's personality. "},"accuracy":[],"embed_level":"b","question_id":"7b","trial_type":"survey","trial_index":7,"time_elapsed":418732,"internal_node_id":"0.0-1.0-0.6-0.6","subject_id":"58b718c7e38022000152c828","study_id":"6259a891582d1b81b094d7e2","session_id":"62606cfe032cf5d66f6d8419","version":0},{"rt":38303,"response":{"P0_Q0":null,"multiQuestion":"sincere","Explanation":"No hints at sarcasm, the answer was believable"},"accuracy":[],"embed_level":"a","question_id":"8a","trial_type":"survey","trial_index":8,"time_elapsed":457059,"internal_node_id":"0.0-1.0-0.7-0.7","subject_id":"58b718c7e38022000152c828","study_id":"6259a891582d1b81b094d7e2","session_id":"62606cfe032cf5d66f6d8419","version":0}]