[{"rt":10263,"stimulus":"<p>In this experiment, you will be presented with 8 scenarios, which you must read carefully.</p><p>After reading each scenario, you will be prompted two comprehension questions: a multiple choice question and a brief open answer question. You will be required to answer both questions for every scenario, meaning 16 questions in total.</p><p>To begin the experiment, hit the space bar.</p>","response":" ","trial_type":"html-keyboard-response","trial_index":0,"time_elapsed":10266,"internal_node_id":"0.0-0.0","subject_id":"5bbb99166322c500015a4b51","study_id":"6259a891582d1b81b094d7e2","session_id":"6260b951215bca48488c8103","version":1},{"rt":49140,"response":{"P0_Q0":null,"multiQuestion":"sincere","Explanation":"They are best friends and this seems to be the only thing which is negative so alice wont be able to tell the difference"},"accuracy":[],"embed_level":"b","question_id":"1b","trial_type":"survey","trial_index":1,"time_elapsed":59481,"internal_node_id":"0.0-1.0-0.0-0.0","subject_id":"5bbb99166322c500015a4b51","study_id":"6259a891582d1b81b094d7e2","session_id":"6260b951215bca48488c8103","version":1},{"rt":60488,"response":{"P0_Q0":null,"multiQuestion":"sincere","Explanation":"It just seems playful "},"accuracy":[],"embed_level":"c","question_id":"2c","trial_type":"survey","trial_index":2,"time_elapsed":119992,"internal_node_id":"0.0-1.0-0.1-0.1","subject_id":"5bbb99166322c500015a4b51","study_id":"6259a891582d1b81b094d7e2","session_id":"6260b951215bca48488c8103","version":1},{"rt":81182,"response":{"P0_Q0":null,"multiQuestion":"sincere","Explanation":"he doesnt know he put salt in the cake and he has not tried it himself "},"accuracy":[],"embed_level":"a","question_id":"3a","trial_type":"survey","trial_index":3,"time_elapsed":201205,"internal_node_id":"0.0-1.0-0.2-0.2","subject_id":"5bbb99166322c500015a4b51","study_id":"6259a891582d1b81b094d7e2","session_id":"6260b951215bca48488c8103","version":1},{"rt":43650,"response":{"P0_Q0":null,"multiQuestion":"sarcastic","Explanation":"they are coworkers so she might think that everyone thinks bulldogs are scary at first sight"},"accuracy":[],"embed_level":"b","question_id":"4b","trial_type":"survey","trial_index":4,"time_elapsed":244891,"internal_node_id":"0.0-1.0-0.3-0.3","subject_id":"5bbb99166322c500015a4b51","study_id":"6259a891582d1b81b094d7e2","session_id":"6260b951215bca48488c8103","version":1},{"rt":94506,"response":{"P0_Q0":null,"multiQuestion":"sarcastic","Explanation":"i think he could have done this on purpose to cause some sort of reaction"},"accuracy":[],"embed_level":"c","question_id":"5c","trial_type":"survey","trial_index":5,"time_elapsed":339431,"internal_node_id":"0.0-1.0-0.4-0.4","subject_id":"5bbb99166322c500015a4b51","study_id":"6259a891582d1b81b094d7e2","session_id":"6260b951215bca48488c8103","version":1},{"rt":81780,"response":{"P0_Q0":null,"multiQuestion":"sarcastic","Explanation":"he doesnt know much of them execpt that they fight a lot "},"accuracy":[],"embed_level":"a","question_id":"6a","trial_type":"survey","trial_index":6,"time_elapsed":421239,"internal_node_id":"0.0-1.0-0.5-0.5","subject_id":"5bbb99166322c500015a4b51","study_id":"6259a891582d1b81b094d7e2","session_id":"6260b951215bca48488c8103","version":1},{"rt":27126,"response":{"P0_Q0":null,"multiQuestion":"sincere","Explanation":"the fact they still speak with each other means they are better now"},"accuracy":[],"embed_level":"a","question_id":"7a","trial_type":"survey","trial_index":7,"time_elapsed":448398,"internal_node_id":"0.0-1.0-0.6-0.6","subject_id":"5bbb99166322c500015a4b51","study_id":"6259a891582d1b81b094d7e2","session_id":"6260b951215bca48488c8103","version":1},{"rt":53506,"response":{"P0_Q0":null,"multiQuestion":"sincere","Explanation":"it short but simple they had a heartwarming chat"},"accuracy":[],"embed_level":"b","question_id":"8b","trial_type":"survey","trial_index":8,"time_elapsed":501937,"internal_node_id":"0.0-1.0-0.7-0.7","subject_id":"5bbb99166322c500015a4b51","study_id":"6259a891582d1b81b094d7e2","session_id":"6260b951215bca48488c8103","version":1}]