[{"rt":10736,"stimulus":"<p>In this experiment, you will be presented with 8 scenarios, which you must read carefully.</p><p>After reading each scenario, you will be prompted two comprehension questions: a multiple choice question and a brief open answer question. You will be required to answer both questions for every scenario, meaning 16 questions in total.</p><p>To begin the experiment, hit the space bar.</p>","response":" ","trial_type":"html-keyboard-response","trial_index":0,"time_elapsed":10740,"internal_node_id":"0.0-0.0","subject_id":"60fbfb7934abbb6199381c88","study_id":"6259a891582d1b81b094d7e2","session_id":"62606d300b038287cd215ca0","version":1},{"rt":39854,"response":{"P0_Q0":null,"multiQuestion":"sarcastic","Explanation":"she is annoyed, but replies \"I llove it\""},"accuracy":[],"embed_level":"b","question_id":"1b","trial_type":"survey","trial_index":1,"time_elapsed":50677,"internal_node_id":"0.0-1.0-0.0-0.0","subject_id":"60fbfb7934abbb6199381c88","study_id":"6259a891582d1b81b094d7e2","session_id":"62606d300b038287cd215ca0","version":1},{"rt":28657,"response":{"P0_Q0":null,"multiQuestion":"sincere","Explanation":"she was in a good mood, she felt like she could do anything"},"accuracy":[],"embed_level":"c","question_id":"2c","trial_type":"survey","trial_index":2,"time_elapsed":79353,"internal_node_id":"0.0-1.0-0.1-0.1","subject_id":"60fbfb7934abbb6199381c88","study_id":"6259a891582d1b81b094d7e2","session_id":"62606d300b038287cd215ca0","version":1},{"rt":33308,"response":{"P0_Q0":null,"multiQuestion":"sincere","Explanation":"she's trying to make him feel good, even though he did werong"},"accuracy":[],"embed_level":"a","question_id":"3a","trial_type":"survey","trial_index":3,"time_elapsed":112693,"internal_node_id":"0.0-1.0-0.2-0.2","subject_id":"60fbfb7934abbb6199381c88","study_id":"6259a891582d1b81b094d7e2","session_id":"62606d300b038287cd215ca0","version":1},{"rt":20478,"response":{"P0_Q0":null,"multiQuestion":"sincere","Explanation":"she doesnt like it end of"},"accuracy":[],"embed_level":"b","question_id":"4b","trial_type":"survey","trial_index":4,"time_elapsed":133201,"internal_node_id":"0.0-1.0-0.3-0.3","subject_id":"60fbfb7934abbb6199381c88","study_id":"6259a891582d1b81b094d7e2","session_id":"62606d300b038287cd215ca0","version":1},{"rt":41172,"response":{"P0_Q0":null,"multiQuestion":"sarcastic","Explanation":"clearly didn't like it but its not Eric's fault"},"accuracy":[],"embed_level":"c","question_id":"5c","trial_type":"survey","trial_index":5,"time_elapsed":174398,"internal_node_id":"0.0-1.0-0.4-0.4","subject_id":"60fbfb7934abbb6199381c88","study_id":"6259a891582d1b81b094d7e2","session_id":"62606d300b038287cd215ca0","version":1},{"rt":56004,"response":{"P0_Q0":null,"multiQuestion":"sincere","Explanation":"they enjoy each others company, but get into fights, this doenst mean the dont like each ther"},"accuracy":[],"embed_level":"a","question_id":"6a","trial_type":"survey","trial_index":6,"time_elapsed":230429,"internal_node_id":"0.0-1.0-0.5-0.5","subject_id":"60fbfb7934abbb6199381c88","study_id":"6259a891582d1b81b094d7e2","session_id":"62606d300b038287cd215ca0","version":1},{"rt":23110,"response":{"P0_Q0":null,"multiQuestion":"sincere","Explanation":"they clearly have mutual respect for weach other"},"accuracy":[],"embed_level":"a","question_id":"7a","trial_type":"survey","trial_index":7,"time_elapsed":253564,"internal_node_id":"0.0-1.0-0.6-0.6","subject_id":"60fbfb7934abbb6199381c88","study_id":"6259a891582d1b81b094d7e2","session_id":"62606d300b038287cd215ca0","version":1},{"rt":38223,"response":{"P0_Q0":null,"multiQuestion":"sincere","Explanation":"she didn;t want to hurt her fellings"},"accuracy":[],"embed_level":"b","question_id":"8b","trial_type":"survey","trial_index":8,"time_elapsed":291813,"internal_node_id":"0.0-1.0-0.7-0.7","subject_id":"60fbfb7934abbb6199381c88","study_id":"6259a891582d1b81b094d7e2","session_id":"62606d300b038287cd215ca0","version":1}]