[{"rt":21147,"stimulus":"<p>In this experiment, you will be presented with 8 scenarios, which you must read carefully.</p><p>After reading each scenario, you will be prompted two comprehension questions: a multiple choice question and a brief open answer question. You will be required to answer both questions for every scenario, meaning 16 questions in total.</p><p>To begin the experiment, hit the space bar.</p>","response":" ","trial_type":"html-keyboard-response","trial_index":0,"time_elapsed":21151,"internal_node_id":"0.0-0.0","subject_id":"5ec267e5d4cb3e02f37e3ea0","study_id":"6259a891582d1b81b094d7e2","session_id":"6260b8fbbbc5269d6cf29c65","version":1},{"rt":23495,"response":{"P0_Q0":null,"multiQuestion":"sincere","Explanation":"they have been friend for a long time"},"accuracy":[],"embed_level":"b","question_id":"1b","trial_type":"survey","trial_index":1,"time_elapsed":44751,"internal_node_id":"0.0-1.0-0.0-0.0","subject_id":"5ec267e5d4cb3e02f37e3ea0","study_id":"6259a891582d1b81b094d7e2","session_id":"6260b8fbbbc5269d6cf29c65","version":1},{"rt":43080,"response":{"P0_Q0":null,"multiQuestion":"sincere","Explanation":"shes pumped up and rteady to work"},"accuracy":[],"embed_level":"c","question_id":"2c","trial_type":"survey","trial_index":2,"time_elapsed":87840,"internal_node_id":"0.0-1.0-0.1-0.1","subject_id":"5ec267e5d4cb3e02f37e3ea0","study_id":"6259a891582d1b81b094d7e2","session_id":"6260b8fbbbc5269d6cf29c65","version":1},{"rt":32118,"response":{"P0_Q0":null,"multiQuestion":"sarcastic","Explanation":"the cake has salt in it"},"accuracy":[],"embed_level":"a","question_id":"3a","trial_type":"survey","trial_index":3,"time_elapsed":119974,"internal_node_id":"0.0-1.0-0.2-0.2","subject_id":"5ec267e5d4cb3e02f37e3ea0","study_id":"6259a891582d1b81b094d7e2","session_id":"6260b8fbbbc5269d6cf29c65","version":1},{"rt":20816,"response":{"P0_Q0":null,"multiQuestion":"sincere","Explanation":"shes doesnt like dogs"},"accuracy":[],"embed_level":"b","question_id":"4b","trial_type":"survey","trial_index":4,"time_elapsed":140806,"internal_node_id":"0.0-1.0-0.3-0.3","subject_id":"5ec267e5d4cb3e02f37e3ea0","study_id":"6259a891582d1b81b094d7e2","session_id":"6260b8fbbbc5269d6cf29c65","version":1},{"rt":32854,"response":{"P0_Q0":null,"multiQuestion":"sarcastic","Explanation":"hes doesnt like the brand"},"accuracy":[],"embed_level":"c","question_id":"5c","trial_type":"survey","trial_index":5,"time_elapsed":173674,"internal_node_id":"0.0-1.0-0.4-0.4","subject_id":"5ec267e5d4cb3e02f37e3ea0","study_id":"6259a891582d1b81b094d7e2","session_id":"6260b8fbbbc5269d6cf29c65","version":1},{"rt":36323,"response":{"P0_Q0":null,"multiQuestion":"sincere","Explanation":"they are brothers"},"accuracy":[],"embed_level":"a","question_id":"6a","trial_type":"survey","trial_index":6,"time_elapsed":210010,"internal_node_id":"0.0-1.0-0.5-0.5","subject_id":"5ec267e5d4cb3e02f37e3ea0","study_id":"6259a891582d1b81b094d7e2","session_id":"6260b8fbbbc5269d6cf29c65","version":1},{"rt":42270,"response":{"P0_Q0":null,"multiQuestion":"sincere","Explanation":"they still talk regulalry"},"accuracy":[],"embed_level":"a","question_id":"7a","trial_type":"survey","trial_index":7,"time_elapsed":252293,"internal_node_id":"0.0-1.0-0.6-0.6","subject_id":"5ec267e5d4cb3e02f37e3ea0","study_id":"6259a891582d1b81b094d7e2","session_id":"6260b8fbbbc5269d6cf29c65","version":1},{"rt":39521,"response":{"P0_Q0":null,"multiQuestion":"sincere","Explanation":"it was a good trip with a friend"},"accuracy":[],"embed_level":"b","question_id":"8b","trial_type":"survey","trial_index":8,"time_elapsed":291827,"internal_node_id":"0.0-1.0-0.7-0.7","subject_id":"5ec267e5d4cb3e02f37e3ea0","study_id":"6259a891582d1b81b094d7e2","session_id":"6260b8fbbbc5269d6cf29c65","version":1}]