[{"rt":23172,"stimulus":"<p>In this experiment, you will be presented with 8 scenarios, which you must read carefully.</p><p>After reading each scenario, you will be prompted two comprehension questions: a multiple choice question and a brief open answer question. You will be required to answer both questions for every scenario, meaning 16 questions in total.</p><p>To begin the experiment, hit the space bar.</p>","response":" ","trial_type":"html-keyboard-response","trial_index":0,"time_elapsed":23174,"internal_node_id":"0.0-0.0","subject_id":"5978f6f009bdcf000153f43d","study_id":"6259a891582d1b81b094d7e2","session_id":"6260b8f6fc165510967b0b75","version":1},{"rt":163725,"response":{"P0_Q0":null,"multiQuestion":"sincere","Explanation":"OLIVIA WOULD HAVE INTERPRETED ALICES REPLY AS SINCERE AS THEY HAVE BEEN LIFELONG FRIENDS AND WOULD ASSUME SHE WAS GENUINE"},"accuracy":[],"embed_level":"b","question_id":"1b","trial_type":"survey","trial_index":1,"time_elapsed":186937,"internal_node_id":"0.0-1.0-0.0-0.0","subject_id":"5978f6f009bdcf000153f43d","study_id":"6259a891582d1b81b094d7e2","session_id":"6260b8f6fc165510967b0b75","version":1},{"rt":262193,"response":{"P0_Q0":null,"multiQuestion":"sincere","Explanation":"i think jane would interpret catherines message as sincere as she is expressing her joy at being able to be successful at her gym class"},"accuracy":[],"embed_level":"c","question_id":"2c","trial_type":"survey","trial_index":2,"time_elapsed":449140,"internal_node_id":"0.0-1.0-0.1-0.1","subject_id":"5978f6f009bdcf000153f43d","study_id":"6259a891582d1b81b094d7e2","session_id":"6260b8f6fc165510967b0b75","version":1},{"rt":165244,"response":{"P0_Q0":null,"multiQuestion":"sarcastic","Explanation":"i think jack knows his cooking is poor and would realise anastasia is being jokey especially your so sweet comment"},"accuracy":[],"embed_level":"a","question_id":"3a","trial_type":"survey","trial_index":3,"time_elapsed":614400,"internal_node_id":"0.0-1.0-0.2-0.2","subject_id":"5978f6f009bdcf000153f43d","study_id":"6259a891582d1b81b094d7e2","session_id":"6260b8f6fc165510967b0b75","version":1},{"rt":168331,"response":{"P0_Q0":null,"multiQuestion":"sarcastic","Explanation":"i think julia would interpret margarets comments as sarcastic as the bull dog puppy would not look lightly to be scary"},"accuracy":[],"embed_level":"b","question_id":"4b","trial_type":"survey","trial_index":4,"time_elapsed":782746,"internal_node_id":"0.0-1.0-0.3-0.3","subject_id":"5978f6f009bdcf000153f43d","study_id":"6259a891582d1b81b094d7e2","session_id":"6260b8f6fc165510967b0b75","version":1},{"rt":141525,"response":{"P0_Q0":null,"multiQuestion":"sincere","Explanation":"i think eric would have interpreted philips reply as sincere as he would have had no prior knowledge of philips issues with the brand in question"},"accuracy":[],"embed_level":"c","question_id":"5c","trial_type":"survey","trial_index":5,"time_elapsed":924286,"internal_node_id":"0.0-1.0-0.4-0.4","subject_id":"5978f6f009bdcf000153f43d","study_id":"6259a891582d1b81b094d7e2","session_id":"6260b8f6fc165510967b0b75","version":1},{"rt":120545,"response":{"P0_Q0":null,"multiQuestion":"sarcastic","Explanation":"i think david believes that jememy is  being sarcastic as he saw the two brothers fighting in front of him"},"accuracy":[],"embed_level":"a","question_id":"6a","trial_type":"survey","trial_index":6,"time_elapsed":1044847,"internal_node_id":"0.0-1.0-0.5-0.5","subject_id":"5978f6f009bdcf000153f43d","study_id":"6259a891582d1b81b094d7e2","session_id":"6260b8f6fc165510967b0b75","version":1},{"rt":108778,"response":{"P0_Q0":null,"multiQuestion":"sarcastic","Explanation":"i think ken would interpret ana text as sarcastic as last he knew ana and james broke up very dramatically"},"accuracy":[],"embed_level":"a","question_id":"7a","trial_type":"survey","trial_index":7,"time_elapsed":1153639,"internal_node_id":"0.0-1.0-0.6-0.6","subject_id":"5978f6f009bdcf000153f43d","study_id":"6259a891582d1b81b094d7e2","session_id":"6260b8f6fc165510967b0b75","version":1},{"rt":114909,"response":{"P0_Q0":null,"multiQuestion":"sincere","Explanation":"i think elizabeth would have interpreted mays text as sincere as she would not know of mays heartache"},"accuracy":[],"embed_level":"b","question_id":"8b","trial_type":"survey","trial_index":8,"time_elapsed":1268564,"internal_node_id":"0.0-1.0-0.7-0.7","subject_id":"5978f6f009bdcf000153f43d","study_id":"6259a891582d1b81b094d7e2","session_id":"6260b8f6fc165510967b0b75","version":1}]