[{"rt":68382,"stimulus":"<p>In this experiment, you will be presented with 8 scenarios, which you must read carefully.</p><p>After reading each scenario, you will be prompted two comprehension questions: a multiple choice question and a brief open answer question. You will be required to answer both questions for every scenario, meaning 16 questions in total.</p><p>To begin the experiment, hit the space bar.</p>","response":" ","trial_type":"html-keyboard-response","trial_index":0,"time_elapsed":68389,"internal_node_id":"0.0-0.0","subject_id":"5c44b3fe1bbffd0001014286","study_id":"6259a891582d1b81b094d7e2","session_id":"6260b929f543f247c18b5e59","version":2},{"rt":84913,"response":{"P0_Q0":null,"multiQuestion":"sincere","Explanation":"as i feel she was protecting the feelings of her friend she was being sincere"},"accuracy":[],"embed_level":"a","question_id":"1a","trial_type":"survey","trial_index":1,"time_elapsed":153425,"internal_node_id":"0.0-1.0-0.0-0.0","subject_id":"5c44b3fe1bbffd0001014286","study_id":"6259a891582d1b81b094d7e2","session_id":"6260b929f543f247c18b5e59","version":2},{"rt":52027,"response":{"P0_Q0":null,"multiQuestion":"sincere","Explanation":"she seems excited and this feels like a sincere thought"},"accuracy":[],"embed_level":"b","question_id":"2b","trial_type":"survey","trial_index":2,"time_elapsed":205479,"internal_node_id":"0.0-1.0-0.1-0.1","subject_id":"5c44b3fe1bbffd0001014286","study_id":"6259a891582d1b81b094d7e2","session_id":"6260b929f543f247c18b5e59","version":2},{"rt":61493,"response":{"P0_Q0":null,"multiQuestion":"sarcastic","Explanation":"as they are best friends i feel she was being sarcastic about the cake and this would not hurt jacks feelings"},"accuracy":[],"embed_level":"b","question_id":"3b","trial_type":"survey","trial_index":3,"time_elapsed":267006,"internal_node_id":"0.0-1.0-0.2-0.2","subject_id":"5c44b3fe1bbffd0001014286","study_id":"6259a891582d1b81b094d7e2","session_id":"6260b929f543f247c18b5e59","version":2},{"rt":109331,"response":{"P0_Q0":null,"multiQuestion":"sincere","Explanation":"as margaret had this trauma i feel her response is sincere and she is actually afraid of the dog "},"accuracy":[],"embed_level":"c","question_id":"4c","trial_type":"survey","trial_index":4,"time_elapsed":376380,"internal_node_id":"0.0-1.0-0.3-0.3","subject_id":"5c44b3fe1bbffd0001014286","study_id":"6259a891582d1b81b094d7e2","session_id":"6260b929f543f247c18b5e59","version":2},{"rt":100014,"response":{"P0_Q0":null,"multiQuestion":"sarcastic","Explanation":"as phillip scoffed i feel like the reply has a element of sarcasm"},"accuracy":[],"embed_level":"a","question_id":"5a","trial_type":"survey","trial_index":5,"time_elapsed":476443,"internal_node_id":"0.0-1.0-0.4-0.4","subject_id":"5c44b3fe1bbffd0001014286","study_id":"6259a891582d1b81b094d7e2","session_id":"6260b929f543f247c18b5e59","version":2},{"rt":65696,"response":{"P0_Q0":null,"multiQuestion":"sincere","Explanation":"as they enjoy spending time with eachother i feel this is a sincere letter and david will take it that way"},"accuracy":[],"embed_level":"b","question_id":"6b","trial_type":"survey","trial_index":6,"time_elapsed":542174,"internal_node_id":"0.0-1.0-0.5-0.5","subject_id":"5c44b3fe1bbffd0001014286","study_id":"6259a891582d1b81b094d7e2","session_id":"6260b929f543f247c18b5e59","version":2},{"rt":87106,"response":{"P0_Q0":null,"multiQuestion":"sincere","Explanation":"as they kept in regular contact i see no reason why not believe this is a sincere text and ken will interrupt it as so."},"accuracy":[],"embed_level":"c","question_id":"7c","trial_type":"survey","trial_index":7,"time_elapsed":629309,"internal_node_id":"0.0-1.0-0.6-0.6","subject_id":"5c44b3fe1bbffd0001014286","study_id":"6259a891582d1b81b094d7e2","session_id":"6260b929f543f247c18b5e59","version":2},{"rt":78797,"response":{"P0_Q0":null,"multiQuestion":"sarcastic","Explanation":"i feel there is a sense of confusion so i feel elizabeth would interpret this text as sarcastic "},"accuracy":[],"embed_level":"c","question_id":"8c","trial_type":"survey","trial_index":8,"time_elapsed":708148,"internal_node_id":"0.0-1.0-0.7-0.7","subject_id":"5c44b3fe1bbffd0001014286","study_id":"6259a891582d1b81b094d7e2","session_id":"6260b929f543f247c18b5e59","version":2}]