[{"rt":17630,"stimulus":"<p>In this experiment, you will be presented with 8 scenarios, which you must read carefully.</p><p>After reading each scenario, you will be prompted two comprehension questions: a multiple choice question and a brief open answer question. You will be required to answer both questions for every scenario, meaning 16 questions in total.</p><p>To begin the experiment, hit the space bar.</p>","response":" ","trial_type":"html-keyboard-response","trial_index":0,"time_elapsed":17630,"internal_node_id":"0.0-0.0","subject_id":"612e4beb040a04a82b16d4c3","study_id":"6259a891582d1b81b094d7e2","session_id":"6260b94fc36a913863ac9188","version":1},{"rt":68407,"response":{"P0_Q0":null,"multiQuestion":"sincere","Explanation":"The reply is very expressive and doesn't hint at any sarcasm."},"accuracy":[],"embed_level":"b","question_id":"1b","trial_type":"survey","trial_index":1,"time_elapsed":86060,"internal_node_id":"0.0-1.0-0.0-0.0","subject_id":"612e4beb040a04a82b16d4c3","study_id":"6259a891582d1b81b094d7e2","session_id":"6260b94fc36a913863ac9188","version":1},{"rt":115063,"response":{"P0_Q0":null,"multiQuestion":"sarcastic","Explanation":"No one lifts a cow unless it's unavoidable."},"accuracy":[],"embed_level":"c","question_id":"2c","trial_type":"survey","trial_index":2,"time_elapsed":201137,"internal_node_id":"0.0-1.0-0.1-0.1","subject_id":"612e4beb040a04a82b16d4c3","study_id":"6259a891582d1b81b094d7e2","session_id":"6260b94fc36a913863ac9188","version":1},{"rt":79986,"response":{"P0_Q0":null,"multiQuestion":"sincere","Explanation":"Jack doesn't know he made a mistake so there's no reason for him to not take it as sincerity."},"accuracy":[],"embed_level":"a","question_id":"3a","trial_type":"survey","trial_index":3,"time_elapsed":281131,"internal_node_id":"0.0-1.0-0.2-0.2","subject_id":"612e4beb040a04a82b16d4c3","study_id":"6259a891582d1b81b094d7e2","session_id":"6260b94fc36a913863ac9188","version":1},{"rt":106851,"response":{"P0_Q0":null,"multiQuestion":"sarcastic","Explanation":"Margaret calling a cute dog scary when Julia is used to hearing that the dog is cute can probably sound like sarcasm."},"accuracy":[],"embed_level":"b","question_id":"4b","trial_type":"survey","trial_index":4,"time_elapsed":387993,"internal_node_id":"0.0-1.0-0.3-0.3","subject_id":"612e4beb040a04a82b16d4c3","study_id":"6259a891582d1b81b094d7e2","session_id":"6260b94fc36a913863ac9188","version":1},{"rt":67567,"response":{"P0_Q0":null,"multiQuestion":"sincere","Explanation":"Eric doesn't know about Phillips past regarding the brand."},"accuracy":[],"embed_level":"c","question_id":"5c","trial_type":"survey","trial_index":5,"time_elapsed":455567,"internal_node_id":"0.0-1.0-0.4-0.4","subject_id":"612e4beb040a04a82b16d4c3","study_id":"6259a891582d1b81b094d7e2","session_id":"6260b94fc36a913863ac9188","version":1},{"rt":82796,"response":{"P0_Q0":null,"multiQuestion":"sarcastic","Explanation":"He's witnessed them arguing, so assumes that they have a bad relationship."},"accuracy":[],"embed_level":"a","question_id":"6a","trial_type":"survey","trial_index":6,"time_elapsed":538371,"internal_node_id":"0.0-1.0-0.5-0.5","subject_id":"612e4beb040a04a82b16d4c3","study_id":"6259a891582d1b81b094d7e2","session_id":"6260b94fc36a913863ac9188","version":1},{"rt":285747,"response":{"P0_Q0":null,"multiQuestion":"sincere","Explanation":"The fact that Ana is still regularly talking to her ex probably is an indication to Ken that she is being genuine."},"accuracy":[],"embed_level":"a","question_id":"7a","trial_type":"survey","trial_index":7,"time_elapsed":824125,"internal_node_id":"0.0-1.0-0.6-0.6","subject_id":"612e4beb040a04a82b16d4c3","study_id":"6259a891582d1b81b094d7e2","session_id":"6260b94fc36a913863ac9188","version":1},{"rt":182287,"response":{"P0_Q0":null,"multiQuestion":"sincere","Explanation":"Nothing in her response indicates sarcasm."},"accuracy":[],"embed_level":"b","question_id":"8b","trial_type":"survey","trial_index":8,"time_elapsed":1006421,"internal_node_id":"0.0-1.0-0.7-0.7","subject_id":"612e4beb040a04a82b16d4c3","study_id":"6259a891582d1b81b094d7e2","session_id":"6260b94fc36a913863ac9188","version":1}]