[{"rt":11864,"stimulus":"<p>In this experiment, you will be presented with 8 scenarios, which you must read carefully.</p><p>After reading each scenario, you will be prompted two comprehension questions: a multiple choice question and a brief open answer question. You will be required to answer both questions for every scenario, meaning 16 questions in total.</p><p>To begin the experiment, hit the space bar.</p>","response":" ","trial_type":"html-keyboard-response","trial_index":0,"time_elapsed":11865,"internal_node_id":"0.0-0.0","subject_id":"5cbcadbe0b073500018c5f73","study_id":"6259a891582d1b81b094d7e2","session_id":"62606d1dd808d8f9a435f3b1","version":0},{"rt":229990,"response":{"P0_Q0":null,"multiQuestion":"sincere","Explanation":"As she did not know that Alice was trying to create her own identity she most likely took the words \"omg I love it\" at face value and thinks that her friend really likes it!"},"accuracy":[],"embed_level":"c","question_id":"1c","trial_type":"survey","trial_index":1,"time_elapsed":241890,"internal_node_id":"0.0-1.0-0.0-0.0","subject_id":"5cbcadbe0b073500018c5f73","study_id":"6259a891582d1b81b094d7e2","session_id":"62606d1dd808d8f9a435f3b1","version":0},{"rt":142277,"response":{"P0_Q0":null,"multiQuestion":"sincere","Explanation":"I think Jane would interpret the message as sincere because the message was only asking if all was ok so I dont think there was any sarcasm in her question."},"accuracy":[],"embed_level":"a","question_id":"2a","trial_type":"survey","trial_index":2,"time_elapsed":384187,"internal_node_id":"0.0-1.0-0.1-0.1","subject_id":"5cbcadbe0b073500018c5f73","study_id":"6259a891582d1b81b094d7e2","session_id":"62606d1dd808d8f9a435f3b1","version":0},{"rt":157319,"response":{"P0_Q0":null,"multiQuestion":"sincere","Explanation":"Anastasias message to Jack would seem sincere because it only states that \"he is sweet\" so he would assume that she liked the cake and was thanking him."},"accuracy":[],"embed_level":"c","question_id":"3c","trial_type":"survey","trial_index":3,"time_elapsed":541523,"internal_node_id":"0.0-1.0-0.2-0.2","subject_id":"5cbcadbe0b073500018c5f73","study_id":"6259a891582d1b81b094d7e2","session_id":"62606d1dd808d8f9a435f3b1","version":0},{"rt":129157,"response":{"P0_Q0":null,"multiQuestion":"sarcastic","Explanation":"I think Julia would think the message was sarcastic as most of Julias friends think her dog is cute so I think in view of this she would take the remark as being sarcastic."},"accuracy":[],"embed_level":"a","question_id":"4a","trial_type":"survey","trial_index":4,"time_elapsed":670692,"internal_node_id":"0.0-1.0-0.3-0.3","subject_id":"5cbcadbe0b073500018c5f73","study_id":"6259a891582d1b81b094d7e2","session_id":"62606d1dd808d8f9a435f3b1","version":0},{"rt":133403,"response":{"P0_Q0":null,"multiQuestion":"sarcastic","Explanation":"I think he would interpret it as being sarcastic because it would be strange to say his jacket was nice otherwise."},"accuracy":[],"embed_level":"b","question_id":"5b","trial_type":"survey","trial_index":5,"time_elapsed":804105,"internal_node_id":"0.0-1.0-0.4-0.4","subject_id":"5cbcadbe0b073500018c5f73","study_id":"6259a891582d1b81b094d7e2","session_id":"62606d1dd808d8f9a435f3b1","version":0},{"rt":181553,"response":{"P0_Q0":null,"multiQuestion":"sincere","Explanation":"Despite David hearing the arguement between the brothers, I think that David would see Jeremys remarks about his brother as being genuine and sincere."},"accuracy":[],"embed_level":"c","question_id":"6c","trial_type":"survey","trial_index":6,"time_elapsed":985668,"internal_node_id":"0.0-1.0-0.5-0.5","subject_id":"5cbcadbe0b073500018c5f73","study_id":"6259a891582d1b81b094d7e2","session_id":"62606d1dd808d8f9a435f3b1","version":0},{"rt":114590,"response":{"P0_Q0":null,"multiQuestion":"sincere","Explanation":"I think ken would see the remarks as sincere because after a break up she would have every excuse to call him bad things but she did not, so is beleivable and sincere."},"accuracy":[],"embed_level":"b","question_id":"7b","trial_type":"survey","trial_index":7,"time_elapsed":1100270,"internal_node_id":"0.0-1.0-0.6-0.6","subject_id":"5cbcadbe0b073500018c5f73","study_id":"6259a891582d1b81b094d7e2","session_id":"62606d1dd808d8f9a435f3b1","version":0},{"rt":176828,"response":{"P0_Q0":null,"multiQuestion":"sarcastic","Explanation":"I think Elizabeth may have interpreted this text as sarcastic because instead of using words such as great. wonderful or fabulous to describe the trip, she just used the word nice which shows that things were not as good as they should have been."},"accuracy":[],"embed_level":"a","question_id":"8a","trial_type":"survey","trial_index":8,"time_elapsed":1277108,"internal_node_id":"0.0-1.0-0.7-0.7","subject_id":"5cbcadbe0b073500018c5f73","study_id":"6259a891582d1b81b094d7e2","session_id":"62606d1dd808d8f9a435f3b1","version":0}]