[{"rt":8091,"stimulus":"<p>In this experiment, you will be presented with 8 scenarios, which you must read carefully.</p><p>After reading each scenario, you will be prompted two comprehension questions: a multiple choice question and a brief open answer question. You will be required to answer both questions for every scenario, meaning 16 questions in total.</p><p>To begin the experiment, hit the space bar.</p>","response":" ","trial_type":"html-keyboard-response","trial_index":0,"time_elapsed":8092,"internal_node_id":"0.0-0.0","subject_id":"623478b74666adc4ae9be6ab","study_id":"6259a891582d1b81b094d7e2","session_id":"62607b5d46b9c417447ad583","version":1},{"rt":85587,"response":{"P0_Q0":null,"multiQuestion":"sincere","Explanation":"Olivia does not necessarily know that Alice is annoyed about her copying her hairstyle. Also, the intention of Alice's text is not necessarily to be sarcastic even if it is insincere."},"accuracy":[],"embed_level":"b","question_id":"1b","trial_type":"survey","trial_index":1,"time_elapsed":93705,"internal_node_id":"0.0-1.0-0.0-0.0","subject_id":"623478b74666adc4ae9be6ab","study_id":"6259a891582d1b81b094d7e2","session_id":"62607b5d46b9c417447ad583","version":1},{"rt":129992,"response":{"P0_Q0":null,"multiQuestion":"sincere","Explanation":"I don't think her response could be considered sarcastic even if she knows that Jane is not happy about her return to the gym. "},"accuracy":[],"embed_level":"c","question_id":"2c","trial_type":"survey","trial_index":2,"time_elapsed":223703,"internal_node_id":"0.0-1.0-0.1-0.1","subject_id":"623478b74666adc4ae9be6ab","study_id":"6259a891582d1b81b094d7e2","session_id":"62607b5d46b9c417447ad583","version":1},{"rt":32050,"response":{"P0_Q0":null,"multiQuestion":"sincere","Explanation":"He does not know the cake is bad"},"accuracy":[],"embed_level":"a","question_id":"3a","trial_type":"survey","trial_index":3,"time_elapsed":255764,"internal_node_id":"0.0-1.0-0.2-0.2","subject_id":"623478b74666adc4ae9be6ab","study_id":"6259a891582d1b81b094d7e2","session_id":"62607b5d46b9c417447ad583","version":1},{"rt":198588,"response":{"P0_Q0":null,"multiQuestion":"sarcastic","Explanation":"She does not know about Margaret's childhood incident, and there is apparently little reason to believe soemone would consider the dog sincerely scary"},"accuracy":[],"embed_level":"b","question_id":"4b","trial_type":"survey","trial_index":4,"time_elapsed":454363,"internal_node_id":"0.0-1.0-0.3-0.3","subject_id":"623478b74666adc4ae9be6ab","study_id":"6259a891582d1b81b094d7e2","session_id":"62607b5d46b9c417447ad583","version":1},{"rt":40588,"response":{"P0_Q0":null,"multiQuestion":"sincere","Explanation":"Eric would not know about the conflict with the company, nor that Phillip considers it to clash with the rest of his outfit. "},"accuracy":[],"embed_level":"c","question_id":"5c","trial_type":"survey","trial_index":5,"time_elapsed":494961,"internal_node_id":"0.0-1.0-0.4-0.4","subject_id":"623478b74666adc4ae9be6ab","study_id":"6259a891582d1b81b094d7e2","session_id":"62607b5d46b9c417447ad583","version":1},{"rt":211319,"response":{"P0_Q0":null,"multiQuestion":"sarcastic","Explanation":"This was a hard choice, but maybe sarcastic given that his only experience of the two was an argument."},"accuracy":[],"embed_level":"a","question_id":"6a","trial_type":"survey","trial_index":6,"time_elapsed":706290,"internal_node_id":"0.0-1.0-0.5-0.5","subject_id":"623478b74666adc4ae9be6ab","study_id":"6259a891582d1b81b094d7e2","session_id":"62607b5d46b9c417447ad583","version":1},{"rt":36990,"response":{"P0_Q0":null,"multiQuestion":"sincere","Explanation":"There is no obvious way for this to be interpreted as a sarcastic response, without some kind of physical gesture (eye-rolling, etc) to indicate it. "},"accuracy":[],"embed_level":"a","question_id":"7a","trial_type":"survey","trial_index":7,"time_elapsed":743289,"internal_node_id":"0.0-1.0-0.6-0.6","subject_id":"623478b74666adc4ae9be6ab","study_id":"6259a891582d1b81b094d7e2","session_id":"62607b5d46b9c417447ad583","version":1},{"rt":62286,"response":{"P0_Q0":null,"multiQuestion":"sincere","Explanation":"May's friend is unaware of what happened on the trip - and would probably assume the trip was nice. "},"accuracy":[],"embed_level":"b","question_id":"8b","trial_type":"survey","trial_index":8,"time_elapsed":805584,"internal_node_id":"0.0-1.0-0.7-0.7","subject_id":"623478b74666adc4ae9be6ab","study_id":"6259a891582d1b81b094d7e2","session_id":"62607b5d46b9c417447ad583","version":1}]