[{"rt":12766,"stimulus":"<p>In this experiment, you will be presented with 8 scenarios, which you must read carefully.</p><p>After reading each scenario, you will be prompted two comprehension questions: a multiple choice question and a brief open answer question. You will be required to answer both questions for every scenario, meaning 16 questions in total.</p><p>To begin the experiment, hit the space bar.</p>","response":" ","trial_type":"html-keyboard-response","trial_index":0,"time_elapsed":12769,"internal_node_id":"0.0-0.0","subject_id":"5e985ca1430baa06b113d255","study_id":"6259a891582d1b81b094d7e2","session_id":"6260691ec8d2eed6b0f81e0a","version":0},{"rt":83784,"response":{"P0_Q0":null,"multiQuestion":"sincere","Explanation":"Olivia can't read Alice's mind, so it doesn't come across as sarcastic."},"accuracy":[],"embed_level":"c","question_id":"1c","trial_type":"survey","trial_index":1,"time_elapsed":96694,"internal_node_id":"0.0-1.0-0.0-0.0","subject_id":"5e985ca1430baa06b113d255","study_id":"6259a891582d1b81b094d7e2","session_id":"6260691ec8d2eed6b0f81e0a","version":0},{"rt":34066,"response":{"P0_Q0":null,"multiQuestion":"sincere","Explanation":"It's not sarcastic it's hyperbole"},"accuracy":[],"embed_level":"a","question_id":"2a","trial_type":"survey","trial_index":2,"time_elapsed":130799,"internal_node_id":"0.0-1.0-0.1-0.1","subject_id":"5e985ca1430baa06b113d255","study_id":"6259a891582d1b81b094d7e2","session_id":"6260691ec8d2eed6b0f81e0a","version":0},{"rt":87760,"response":{"P0_Q0":null,"multiQuestion":"sarcastic","Explanation":"It seems sarcastic because of the reference to sweetness, which was missing due to the lack of sugar."},"accuracy":[],"embed_level":"c","question_id":"3c","trial_type":"survey","trial_index":3,"time_elapsed":218607,"internal_node_id":"0.0-1.0-0.2-0.2","subject_id":"5e985ca1430baa06b113d255","study_id":"6259a891582d1b81b094d7e2","session_id":"6260691ec8d2eed6b0f81e0a","version":0},{"rt":66092,"response":{"P0_Q0":null,"multiQuestion":"sarcastic","Explanation":"Because puppies aren't typically seen as scary, so it seems more like a joke"},"accuracy":[],"embed_level":"a","question_id":"4a","trial_type":"survey","trial_index":4,"time_elapsed":284730,"internal_node_id":"0.0-1.0-0.3-0.3","subject_id":"5e985ca1430baa06b113d255","study_id":"6259a891582d1b81b094d7e2","session_id":"6260691ec8d2eed6b0f81e0a","version":0},{"rt":67727,"response":{"P0_Q0":null,"multiQuestion":"sincere","Explanation":"He didn't let on to Eric that he didn't like it, unlikely Eric would think otherwise"},"accuracy":[],"embed_level":"b","question_id":"5b","trial_type":"survey","trial_index":5,"time_elapsed":352512,"internal_node_id":"0.0-1.0-0.4-0.4","subject_id":"5e985ca1430baa06b113d255","study_id":"6259a891582d1b81b094d7e2","session_id":"6260691ec8d2eed6b0f81e0a","version":0},{"rt":81081,"response":{"P0_Q0":null,"multiQuestion":"sarcastic","Explanation":"David has just seen them have a heated fight, so it comes across sarcastically"},"accuracy":[],"embed_level":"c","question_id":"6c","trial_type":"survey","trial_index":6,"time_elapsed":433622,"internal_node_id":"0.0-1.0-0.5-0.5","subject_id":"5e985ca1430baa06b113d255","study_id":"6259a891582d1b81b094d7e2","session_id":"6260691ec8d2eed6b0f81e0a","version":0},{"rt":70793,"response":{"P0_Q0":null,"multiQuestion":"sincere","Explanation":"Tough to say, but not enough context to make it seem sarcastic"},"accuracy":[],"embed_level":"b","question_id":"7b","trial_type":"survey","trial_index":7,"time_elapsed":504449,"internal_node_id":"0.0-1.0-0.6-0.6","subject_id":"5e985ca1430baa06b113d255","study_id":"6259a891582d1b81b094d7e2","session_id":"6260691ec8d2eed6b0f81e0a","version":0},{"rt":83907,"response":{"P0_Q0":null,"multiQuestion":"sarcastic","Explanation":"I think Elizabeth would get the impression May didn't want to talk about it."},"accuracy":[],"embed_level":"a","question_id":"8a","trial_type":"survey","trial_index":8,"time_elapsed":588393,"internal_node_id":"0.0-1.0-0.7-0.7","subject_id":"5e985ca1430baa06b113d255","study_id":"6259a891582d1b81b094d7e2","session_id":"6260691ec8d2eed6b0f81e0a","version":0}]