[{"rt":8634,"stimulus":"<p>In this experiment, you will be presented with 8 scenarios, which you must read carefully.</p><p>After reading each scenario, you will be prompted two comprehension questions: a multiple choice question and a brief open answer question. You will be required to answer both questions for every scenario, meaning 16 questions in total.</p><p>To begin the experiment, hit the space bar.</p>","response":" ","trial_type":"html-keyboard-response","trial_index":0,"time_elapsed":8636,"internal_node_id":"0.0-0.0","subject_id":"61251ec09bc9cf599990480c","study_id":"6259a891582d1b81b094d7e2","session_id":"62606d2de03fd5d6e3452fb8","version":1},{"rt":29538,"response":{"P0_Q0":null,"multiQuestion":"sarcastic","Explanation":"Alice is being sarcastic as she sees that Olivia is copying her, and Is annoyed."},"accuracy":[],"embed_level":"b","question_id":"1b","trial_type":"survey","trial_index":1,"time_elapsed":38234,"internal_node_id":"0.0-1.0-0.0-0.0","subject_id":"61251ec09bc9cf599990480c","study_id":"6259a891582d1b81b094d7e2","session_id":"62606d2de03fd5d6e3452fb8","version":1},{"rt":49266,"response":{"P0_Q0":null,"multiQuestion":"sincere","Explanation":"she'd know that Catherine would be honest if she was struggling or if she pushed herself too hard"},"accuracy":[],"embed_level":"c","question_id":"2c","trial_type":"survey","trial_index":2,"time_elapsed":87513,"internal_node_id":"0.0-1.0-0.1-0.1","subject_id":"61251ec09bc9cf599990480c","study_id":"6259a891582d1b81b094d7e2","session_id":"62606d2de03fd5d6e3452fb8","version":1},{"rt":47657,"response":{"P0_Q0":null,"multiQuestion":"sincere","Explanation":"because he thinks he made a nice gift for his friend and she sounds as if she appreciates it. he doesn't know of any reason why she wouldn't be sincere"},"accuracy":[],"embed_level":"a","question_id":"3a","trial_type":"survey","trial_index":3,"time_elapsed":135181,"internal_node_id":"0.0-1.0-0.2-0.2","subject_id":"61251ec09bc9cf599990480c","study_id":"6259a891582d1b81b094d7e2","session_id":"62606d2de03fd5d6e3452fb8","version":1},{"rt":41840,"response":{"P0_Q0":null,"multiQuestion":"sarcastic","Explanation":"as everyone else thinks Julia's dog is cute, Julia would read the message of Margaret trying to have a joke when she actually thinks the puppy is quite cute"},"accuracy":[],"embed_level":"b","question_id":"4b","trial_type":"survey","trial_index":4,"time_elapsed":177031,"internal_node_id":"0.0-1.0-0.3-0.3","subject_id":"61251ec09bc9cf599990480c","study_id":"6259a891582d1b81b094d7e2","session_id":"62606d2de03fd5d6e3452fb8","version":1},{"rt":151979,"response":{"P0_Q0":null,"multiQuestion":"sincere","Explanation":"Eric probably thinks his jacket looked great, and that the interview went well, so he wouldn't see any reason for Phillip to be rude about his jacket."},"accuracy":[],"embed_level":"c","question_id":"5c","trial_type":"survey","trial_index":5,"time_elapsed":329022,"internal_node_id":"0.0-1.0-0.4-0.4","subject_id":"61251ec09bc9cf599990480c","study_id":"6259a891582d1b81b094d7e2","session_id":"62606d2de03fd5d6e3452fb8","version":1},{"rt":27716,"response":{"P0_Q0":null,"multiQuestion":"sarcastic","Explanation":"most young kids are sarcastic about their siblings"},"accuracy":[],"embed_level":"a","question_id":"6a","trial_type":"survey","trial_index":6,"time_elapsed":356755,"internal_node_id":"0.0-1.0-0.5-0.5","subject_id":"61251ec09bc9cf599990480c","study_id":"6259a891582d1b81b094d7e2","session_id":"62606d2de03fd5d6e3452fb8","version":1},{"rt":38913,"response":{"P0_Q0":null,"multiQuestion":"sarcastic","Explanation":"if Ken knows how Ana's relationship ended then he might assume she is bitter or upset over the fight, and not actually think he is still a good guy"},"accuracy":[],"embed_level":"a","question_id":"7a","trial_type":"survey","trial_index":7,"time_elapsed":395683,"internal_node_id":"0.0-1.0-0.6-0.6","subject_id":"61251ec09bc9cf599990480c","study_id":"6259a891582d1b81b094d7e2","session_id":"62606d2de03fd5d6e3452fb8","version":1},{"rt":61887,"response":{"P0_Q0":null,"multiQuestion":"sarcastic","Explanation":"nice isn't a word you'd use to describe something you enjoyed, and if you did enjoy it you would go into more detail to talk about the things you did and what you saw etc"},"accuracy":[],"embed_level":"b","question_id":"8b","trial_type":"survey","trial_index":8,"time_elapsed":457583,"internal_node_id":"0.0-1.0-0.7-0.7","subject_id":"61251ec09bc9cf599990480c","study_id":"6259a891582d1b81b094d7e2","session_id":"62606d2de03fd5d6e3452fb8","version":1}]