[{"rt":18294,"stimulus":"<p>In this experiment, you will be presented with 8 scenarios, which you must read carefully.</p><p>After reading each scenario, you will be prompted two comprehension questions: a multiple choice question and a brief open answer question. You will be required to answer both questions for every scenario, meaning 16 questions in total.</p><p>To begin the experiment, hit the space bar.</p>","response":" ","trial_type":"html-keyboard-response","trial_index":0,"time_elapsed":18307,"internal_node_id":"0.0-0.0","subject_id":"5e10ad92a6eb6078856a5067","study_id":"6259a891582d1b81b094d7e2","session_id":"62606d4e90c806e61652bd23","version":1},{"rt":61415,"response":{"P0_Q0":null,"multiQuestion":"sincere","Explanation":"hair cut is too far for a joke"},"accuracy":[],"embed_level":"b","question_id":"1b","trial_type":"survey","trial_index":1,"time_elapsed":80046,"internal_node_id":"0.0-1.0-0.0-0.0","subject_id":"5e10ad92a6eb6078856a5067","study_id":"6259a891582d1b81b094d7e2","session_id":"62606d4e90c806e61652bd23","version":1},{"rt":128078,"response":{"P0_Q0":null,"multiQuestion":"sincere","Explanation":"ive heard people say that"},"accuracy":[],"embed_level":"c","question_id":"2c","trial_type":"survey","trial_index":2,"time_elapsed":208192,"internal_node_id":"0.0-1.0-0.1-0.1","subject_id":"5e10ad92a6eb6078856a5067","study_id":"6259a891582d1b81b094d7e2","session_id":"62606d4e90c806e61652bd23","version":1},{"rt":76027,"response":{"P0_Q0":null,"multiQuestion":"sincere","Explanation":"sometimes its the effort that counts"},"accuracy":[],"embed_level":"a","question_id":"3a","trial_type":"survey","trial_index":3,"time_elapsed":284312,"internal_node_id":"0.0-1.0-0.2-0.2","subject_id":"5e10ad92a6eb6078856a5067","study_id":"6259a891582d1b81b094d7e2","session_id":"62606d4e90c806e61652bd23","version":1},{"rt":54070,"response":{"P0_Q0":null,"multiQuestion":"sincere","Explanation":"a logical response"},"accuracy":[],"embed_level":"b","question_id":"4b","trial_type":"survey","trial_index":4,"time_elapsed":338476,"internal_node_id":"0.0-1.0-0.3-0.3","subject_id":"5e10ad92a6eb6078856a5067","study_id":"6259a891582d1b81b094d7e2","session_id":"62606d4e90c806e61652bd23","version":1},{"rt":99406,"response":{"P0_Q0":null,"multiQuestion":"sincere","Explanation":"dont think eric would have known about the fued "},"accuracy":[],"embed_level":"c","question_id":"5c","trial_type":"survey","trial_index":5,"time_elapsed":437964,"internal_node_id":"0.0-1.0-0.4-0.4","subject_id":"5e10ad92a6eb6078856a5067","study_id":"6259a891582d1b81b094d7e2","session_id":"62606d4e90c806e61652bd23","version":1},{"rt":60038,"response":{"P0_Q0":null,"multiQuestion":"sarcastic","Explanation":"he doesnt know either of them, but saw them fight"},"accuracy":[],"embed_level":"a","question_id":"6a","trial_type":"survey","trial_index":6,"time_elapsed":498091,"internal_node_id":"0.0-1.0-0.5-0.5","subject_id":"5e10ad92a6eb6078856a5067","study_id":"6259a891582d1b81b094d7e2","session_id":"62606d4e90c806e61652bd23","version":1},{"rt":77698,"response":{"P0_Q0":null,"multiQuestion":"sarcastic","Explanation":"he doesnt know they still talk"},"accuracy":[],"embed_level":"a","question_id":"7a","trial_type":"survey","trial_index":7,"time_elapsed":575873,"internal_node_id":"0.0-1.0-0.6-0.6","subject_id":"5e10ad92a6eb6078856a5067","study_id":"6259a891582d1b81b094d7e2","session_id":"62606d4e90c806e61652bd23","version":1},{"rt":100772,"response":{"P0_Q0":null,"multiQuestion":"sarcastic","Explanation":"too brief to be meaningful"},"accuracy":[],"embed_level":"b","question_id":"8b","trial_type":"survey","trial_index":8,"time_elapsed":676724,"internal_node_id":"0.0-1.0-0.7-0.7","subject_id":"5e10ad92a6eb6078856a5067","study_id":"6259a891582d1b81b094d7e2","session_id":"62606d4e90c806e61652bd23","version":1}]