[{"rt":24002,"stimulus":"<p>In this experiment, you will be presented with 8 scenarios, which you must read carefully.</p><p>After reading each scenario, you will be prompted two comprehension questions: a multiple choice question and a brief open answer question. You will be required to answer both questions for every scenario, meaning 16 questions in total.</p><p>To begin the experiment, hit the space bar.</p>","response":" ","trial_type":"html-keyboard-response","trial_index":0,"time_elapsed":24006,"internal_node_id":"0.0-0.0","subject_id":"615c500bec9a6a7c10c6c12b","study_id":"6259a891582d1b81b094d7e2","session_id":"6260b9248f62245bcf2b3ab0","version":1},{"rt":146566,"response":{"P0_Q0":null,"multiQuestion":"sincere","Explanation":"Although she may dislike it and not mean what she is saying, that is not what sarcasm is. The text is not different from the reply you would get from someone being sincere, and there is no way for Olivia to know without more context that she is not being genuine."},"accuracy":[],"embed_level":"b","question_id":"1b","trial_type":"survey","trial_index":1,"time_elapsed":170639,"internal_node_id":"0.0-1.0-0.0-0.0","subject_id":"615c500bec9a6a7c10c6c12b","study_id":"6259a891582d1b81b094d7e2","session_id":"6260b9248f62245bcf2b3ab0","version":1},{"rt":102025,"response":{"P0_Q0":null,"multiQuestion":"sincere","Explanation":"Catherine is expressing her genuine feelings, even though Jane might not like what is being expressed."},"accuracy":[],"embed_level":"c","question_id":"2c","trial_type":"survey","trial_index":2,"time_elapsed":272681,"internal_node_id":"0.0-1.0-0.1-0.1","subject_id":"615c500bec9a6a7c10c6c12b","study_id":"6259a891582d1b81b094d7e2","session_id":"6260b9248f62245bcf2b3ab0","version":1},{"rt":65889,"response":{"P0_Q0":null,"multiQuestion":"sincere","Explanation":"Anastasia is lying to protect his feelings, not being sarcastic. The aren't you so sweet part is clearly indicates this."},"accuracy":[],"embed_level":"a","question_id":"3a","trial_type":"survey","trial_index":3,"time_elapsed":338598,"internal_node_id":"0.0-1.0-0.2-0.2","subject_id":"615c500bec9a6a7c10c6c12b","study_id":"6259a891582d1b81b094d7e2","session_id":"6260b9248f62245bcf2b3ab0","version":1},{"rt":189090,"response":{"P0_Q0":null,"multiQuestion":"sarcastic","Explanation":"This is somewhat difficult to determine, as it would depend on Julia having knowledge of Margaret's phobia to understand it is genuine. Most people reading a text of 'your dog is so scary' about a small puppy would assume you were being ironic /sarcastic without further information/context."},"accuracy":[],"embed_level":"b","question_id":"4b","trial_type":"survey","trial_index":4,"time_elapsed":527712,"internal_node_id":"0.0-1.0-0.3-0.3","subject_id":"615c500bec9a6a7c10c6c12b","study_id":"6259a891582d1b81b094d7e2","session_id":"6260b9248f62245bcf2b3ab0","version":1},{"rt":133482,"response":{"P0_Q0":null,"multiQuestion":"sincere","Explanation":"Eric has no knowledge of Philips history/issues, so no reason to doubt the message is genuine. "},"accuracy":[],"embed_level":"c","question_id":"5c","trial_type":"survey","trial_index":5,"time_elapsed":661215,"internal_node_id":"0.0-1.0-0.4-0.4","subject_id":"615c500bec9a6a7c10c6c12b","study_id":"6259a891582d1b81b094d7e2","session_id":"6260b9248f62245bcf2b3ab0","version":1},{"rt":214900,"response":{"P0_Q0":null,"multiQuestion":"sincere","Explanation":"This is very difficult to determine, but probably on balance even if he had witnessed a fight between them, David would assume Jeremy was being genuine, and it was a one off. You would probably need more obvious or additional tonal evidence in the rest of what someone had written, to assume/infer they are being sarcastic. "},"accuracy":[],"embed_level":"a","question_id":"6a","trial_type":"survey","trial_index":6,"time_elapsed":876143,"internal_node_id":"0.0-1.0-0.5-0.5","subject_id":"615c500bec9a6a7c10c6c12b","study_id":"6259a891582d1b81b094d7e2","session_id":"6260b9248f62245bcf2b3ab0","version":1},{"rt":141209,"response":{"P0_Q0":null,"multiQuestion":"sincere","Explanation":"This is finely balanced, but as with the previous answer, while you might consider the possibility they are being sarcastic, without additional writing in the same tone around it, you would not assume on balance that this is sarcasm."},"accuracy":[],"embed_level":"a","question_id":"7a","trial_type":"survey","trial_index":7,"time_elapsed":1017372,"internal_node_id":"0.0-1.0-0.6-0.6","subject_id":"615c500bec9a6a7c10c6c12b","study_id":"6259a891582d1b81b094d7e2","session_id":"6260b9248f62245bcf2b3ab0","version":1},{"rt":79014,"response":{"P0_Q0":null,"multiQuestion":"sincere","Explanation":"Nothing about it was nice implies sarcasm. Her friend might think she is holding something back or not being fully truthful, but you would not think of this as sarcasm."},"accuracy":[],"embed_level":"b","question_id":"8b","trial_type":"survey","trial_index":8,"time_elapsed":1096405,"internal_node_id":"0.0-1.0-0.7-0.7","subject_id":"615c500bec9a6a7c10c6c12b","study_id":"6259a891582d1b81b094d7e2","session_id":"6260b9248f62245bcf2b3ab0","version":1}]