[{"rt":17954,"stimulus":"<p>In this experiment, you will be presented with 8 scenarios, which you must read carefully.</p><p>After reading each scenario, you will be prompted two comprehension questions: a multiple choice question and a brief open answer question. You will be required to answer both questions for every scenario, meaning 16 questions in total.</p><p>To begin the experiment, hit the space bar.</p>","response":"f11","trial_type":"html-keyboard-response","trial_index":0,"time_elapsed":17955,"internal_node_id":"0.0-0.0","subject_id":"5b5523d6d8348500012cfccf","study_id":"6259a891582d1b81b094d7e2","session_id":"6260b913b094fbeccbbdff67","version":2},{"rt":113516,"response":{"P0_Q0":null,"multiQuestion":"sincere","Explanation":"Because neither of them have indicated dislike of the hairstyle, nor a preestablished dislike of the hairstyle."},"accuracy":[],"embed_level":"a","question_id":"1a","trial_type":"survey","trial_index":1,"time_elapsed":131511,"internal_node_id":"0.0-1.0-0.0-0.0","subject_id":"5b5523d6d8348500012cfccf","study_id":"6259a891582d1b81b094d7e2","session_id":"6260b913b094fbeccbbdff67","version":2},{"rt":93874,"response":{"P0_Q0":null,"multiQuestion":"sarcastic","Explanation":"Jane knows about Catherine's injury and so will understand the exaggerated enthusiasm from Catherine would be too much from someone freshly recovering from a back injury."},"accuracy":[],"embed_level":"b","question_id":"2b","trial_type":"survey","trial_index":2,"time_elapsed":225395,"internal_node_id":"0.0-1.0-0.1-0.1","subject_id":"5b5523d6d8348500012cfccf","study_id":"6259a891582d1b81b094d7e2","session_id":"6260b913b094fbeccbbdff67","version":2},{"rt":52048,"response":{"P0_Q0":null,"multiQuestion":"sincere","Explanation":"Jack does not know his mistake and such a response from Anastasia would seem like common courtesy."},"accuracy":[],"embed_level":"b","question_id":"3b","trial_type":"survey","trial_index":3,"time_elapsed":277462,"internal_node_id":"0.0-1.0-0.2-0.2","subject_id":"5b5523d6d8348500012cfccf","study_id":"6259a891582d1b81b094d7e2","session_id":"6260b913b094fbeccbbdff67","version":2},{"rt":73353,"response":{"P0_Q0":null,"multiQuestion":"sarcastic","Explanation":"Julia does not know about Margaret's past trauma with dogs and so the comment will seem out of place unless it was a joke."},"accuracy":[],"embed_level":"c","question_id":"4c","trial_type":"survey","trial_index":4,"time_elapsed":350834,"internal_node_id":"0.0-1.0-0.3-0.3","subject_id":"5b5523d6d8348500012cfccf","study_id":"6259a891582d1b81b094d7e2","session_id":"6260b913b094fbeccbbdff67","version":2},{"rt":102649,"response":{"P0_Q0":null,"multiQuestion":"sincere","Explanation":"Eric does not know that Philip dislikes his style of fashion, and as the interview went will and fashion is highly subjective Eric may just consider it a genuine compliment."},"accuracy":[],"embed_level":"a","question_id":"5a","trial_type":"survey","trial_index":5,"time_elapsed":453497,"internal_node_id":"0.0-1.0-0.4-0.4","subject_id":"5b5523d6d8348500012cfccf","study_id":"6259a891582d1b81b094d7e2","session_id":"6260b913b094fbeccbbdff67","version":2},{"rt":63671,"response":{"P0_Q0":null,"multiQuestion":"sarcastic","Explanation":"David does not know of the genuine friendship the brothers have for each other and having only seen the heated argument will not be quick to believe such a statement."},"accuracy":[],"embed_level":"b","question_id":"6b","trial_type":"survey","trial_index":6,"time_elapsed":517185,"internal_node_id":"0.0-1.0-0.5-0.5","subject_id":"5b5523d6d8348500012cfccf","study_id":"6259a891582d1b81b094d7e2","session_id":"6260b913b094fbeccbbdff67","version":2},{"rt":92932,"response":{"P0_Q0":null,"multiQuestion":"sincere","Explanation":"Ken has no knowledge of how they broke up and so can only take her word and may think they broke up amicably."},"accuracy":[],"embed_level":"c","question_id":"7c","trial_type":"survey","trial_index":7,"time_elapsed":610131,"internal_node_id":"0.0-1.0-0.6-0.6","subject_id":"5b5523d6d8348500012cfccf","study_id":"6259a891582d1b81b094d7e2","session_id":"6260b913b094fbeccbbdff67","version":2},{"rt":90321,"response":{"P0_Q0":null,"multiQuestion":"sincere","Explanation":"Elizabeth has no idea what happened to May during the trip nor her feelings throughout so Elizabeth can only take May's word for it."},"accuracy":[],"embed_level":"c","question_id":"8c","trial_type":"survey","trial_index":8,"time_elapsed":700468,"internal_node_id":"0.0-1.0-0.7-0.7","subject_id":"5b5523d6d8348500012cfccf","study_id":"6259a891582d1b81b094d7e2","session_id":"6260b913b094fbeccbbdff67","version":2}]