[{"rt":8803,"stimulus":"<p>In this experiment, you will be presented with 8 scenarios, which you must read carefully.</p><p>After reading each scenario, you will be prompted two comprehension questions: a multiple choice question and a brief open answer question. You will be required to answer both questions for every scenario, meaning 16 questions in total.</p><p>To begin the experiment, hit the space bar.</p>","response":" ","trial_type":"html-keyboard-response","trial_index":0,"time_elapsed":8805,"internal_node_id":"0.0-0.0","subject_id":"60ca8ba5df33cf01a47b670a","study_id":"6259a891582d1b81b094d7e2","session_id":"6260b9145004a38acd5bd56d","version":2},{"rt":59811,"response":{"P0_Q0":null,"multiQuestion":"sarcastic","Explanation":"since they have been friends a long time, it makes sense that they know each other well enough - knowing preferences of the other person."},"accuracy":[],"embed_level":"a","question_id":"1a","trial_type":"survey","trial_index":1,"time_elapsed":68667,"internal_node_id":"0.0-1.0-0.0-0.0","subject_id":"60ca8ba5df33cf01a47b670a","study_id":"6259a891582d1b81b094d7e2","session_id":"6260b9145004a38acd5bd56d","version":2},{"rt":75303,"response":{"P0_Q0":null,"multiQuestion":"sincere","Explanation":"there's no reason why Jane would take that as sarcastic. they're partners and Jane wants the best for her partner."},"accuracy":[],"embed_level":"b","question_id":"2b","trial_type":"survey","trial_index":2,"time_elapsed":144038,"internal_node_id":"0.0-1.0-0.1-0.1","subject_id":"60ca8ba5df33cf01a47b670a","study_id":"6259a891582d1b81b094d7e2","session_id":"6260b9145004a38acd5bd56d","version":2},{"rt":76668,"response":{"P0_Q0":null,"multiQuestion":"sincere","Explanation":"he doesn't know he made the mistake and probably thinks his friends appreciated his efforts"},"accuracy":[],"embed_level":"b","question_id":"3b","trial_type":"survey","trial_index":3,"time_elapsed":220726,"internal_node_id":"0.0-1.0-0.2-0.2","subject_id":"60ca8ba5df33cf01a47b670a","study_id":"6259a891582d1b81b094d7e2","session_id":"6260b9145004a38acd5bd56d","version":2},{"rt":91078,"response":{"P0_Q0":null,"multiQuestion":"sarcastic","Explanation":"considering most people think the dog is cute meaning probably small and non-threatening plus jane doesn't know margaret's aversion to bulldogs"},"accuracy":[],"embed_level":"c","question_id":"4c","trial_type":"survey","trial_index":4,"time_elapsed":311834,"internal_node_id":"0.0-1.0-0.3-0.3","subject_id":"60ca8ba5df33cf01a47b670a","study_id":"6259a891582d1b81b094d7e2","session_id":"6260b9145004a38acd5bd56d","version":2},{"rt":47441,"response":{"P0_Q0":null,"multiQuestion":"sarcastic","Explanation":"maybe Eric heard the scoff"},"accuracy":[],"embed_level":"a","question_id":"5a","trial_type":"survey","trial_index":5,"time_elapsed":359287,"internal_node_id":"0.0-1.0-0.4-0.4","subject_id":"60ca8ba5df33cf01a47b670a","study_id":"6259a891582d1b81b094d7e2","session_id":"6260b9145004a38acd5bd56d","version":2},{"rt":58772,"response":{"P0_Q0":null,"multiQuestion":"sarcastic","Explanation":"David doesn't know their history and they just had a fight"},"accuracy":[],"embed_level":"b","question_id":"6b","trial_type":"survey","trial_index":6,"time_elapsed":418088,"internal_node_id":"0.0-1.0-0.5-0.5","subject_id":"60ca8ba5df33cf01a47b670a","study_id":"6259a891582d1b81b094d7e2","session_id":"6260b9145004a38acd5bd56d","version":2},{"rt":48259,"response":{"P0_Q0":null,"multiQuestion":"sarcastic","Explanation":"ken still knows of the dramatic fight and not the good years they had thereafter"},"accuracy":[],"embed_level":"c","question_id":"7c","trial_type":"survey","trial_index":7,"time_elapsed":466361,"internal_node_id":"0.0-1.0-0.6-0.6","subject_id":"60ca8ba5df33cf01a47b670a","study_id":"6259a891582d1b81b094d7e2","session_id":"6260b9145004a38acd5bd56d","version":2},{"rt":41029,"response":{"P0_Q0":null,"multiQuestion":"sincere","Explanation":"elizabeth doesnt know about the heartbreak "},"accuracy":[],"embed_level":"c","question_id":"8c","trial_type":"survey","trial_index":8,"time_elapsed":507408,"internal_node_id":"0.0-1.0-0.7-0.7","subject_id":"60ca8ba5df33cf01a47b670a","study_id":"6259a891582d1b81b094d7e2","session_id":"6260b9145004a38acd5bd56d","version":2}]