[{"rt":18748,"stimulus":"<p>In this experiment, you will be presented with 8 scenarios, which you must read carefully.</p><p>After reading each scenario, you will be prompted two comprehension questions: a multiple choice question and a brief open answer question. You will be required to answer both questions for every scenario, meaning 16 questions in total.</p><p>To begin the experiment, hit the space bar.</p>","response":" ","trial_type":"html-keyboard-response","trial_index":0,"time_elapsed":18751,"internal_node_id":"0.0-0.0","subject_id":"5c7458b0d094c900013c3bf0","study_id":"6259a891582d1b81b094d7e2","session_id":"6260696c2ec2401b5e62f7b7","version":2},{"rt":75717,"response":{"P0_Q0":null,"multiQuestion":"sincere","Explanation":"Alice didn't want her friend to know she didn't like it. So she said something nice anyway."},"accuracy":[],"embed_level":"a","question_id":"1a","trial_type":"survey","trial_index":1,"time_elapsed":94562,"internal_node_id":"0.0-1.0-0.0-0.0","subject_id":"5c7458b0d094c900013c3bf0","study_id":"6259a891582d1b81b094d7e2","session_id":"6260696c2ec2401b5e62f7b7","version":2},{"rt":111080,"response":{"P0_Q0":null,"multiQuestion":"sarcastic","Explanation":"Jane knows that Catherine wouldn't literally be able to lift a cow. It would also be unlikely as she is recovering from an injury."},"accuracy":[],"embed_level":"b","question_id":"2b","trial_type":"survey","trial_index":2,"time_elapsed":205663,"internal_node_id":"0.0-1.0-0.1-0.1","subject_id":"5c7458b0d094c900013c3bf0","study_id":"6259a891582d1b81b094d7e2","session_id":"6260696c2ec2401b5e62f7b7","version":2},{"rt":131982,"response":{"P0_Q0":null,"multiQuestion":"sincere","Explanation":"Jack didn't know that he used salt instead of sugar. He would have probably thought that it turned out ok, not terriable but not great."},"accuracy":[],"embed_level":"b","question_id":"3b","trial_type":"survey","trial_index":3,"time_elapsed":337681,"internal_node_id":"0.0-1.0-0.2-0.2","subject_id":"5c7458b0d094c900013c3bf0","study_id":"6259a891582d1b81b094d7e2","session_id":"6260696c2ec2401b5e62f7b7","version":2},{"rt":121652,"response":{"P0_Q0":null,"multiQuestion":"sarcastic","Explanation":"Julia wouldn't have known about her past pexrience. So she would have just thought Margaret was joking since the dog was only a puppy which wouldn't look scary at all."},"accuracy":[],"embed_level":"c","question_id":"4c","trial_type":"survey","trial_index":4,"time_elapsed":459365,"internal_node_id":"0.0-1.0-0.3-0.3","subject_id":"5c7458b0d094c900013c3bf0","study_id":"6259a891582d1b81b094d7e2","session_id":"6260696c2ec2401b5e62f7b7","version":2},{"rt":232518,"response":{"P0_Q0":null,"multiQuestion":"sincere","Explanation":"Eric probably thinks the jacket looks great and so wouldnt expect anything else."},"accuracy":[],"embed_level":"a","question_id":"5a","trial_type":"survey","trial_index":5,"time_elapsed":691919,"internal_node_id":"0.0-1.0-0.4-0.4","subject_id":"5c7458b0d094c900013c3bf0","study_id":"6259a891582d1b81b094d7e2","session_id":"6260696c2ec2401b5e62f7b7","version":2},{"rt":281249,"response":{"P0_Q0":null,"multiQuestion":"sarcastic","Explanation":"David doesnt know the two of them very well. So he would think it was sarcasm having just seen the fight"},"accuracy":[],"embed_level":"b","question_id":"6b","trial_type":"survey","trial_index":6,"time_elapsed":973203,"internal_node_id":"0.0-1.0-0.5-0.5","subject_id":"5c7458b0d094c900013c3bf0","study_id":"6259a891582d1b81b094d7e2","session_id":"6260696c2ec2401b5e62f7b7","version":2},{"rt":208279,"response":{"P0_Q0":null,"multiQuestion":"sarcastic","Explanation":"The last think that Kens knows about is the breakup , so i think he would see this as sarcasm"},"accuracy":[],"embed_level":"c","question_id":"7c","trial_type":"survey","trial_index":7,"time_elapsed":1181515,"internal_node_id":"0.0-1.0-0.6-0.6","subject_id":"5c7458b0d094c900013c3bf0","study_id":"6259a891582d1b81b094d7e2","session_id":"6260696c2ec2401b5e62f7b7","version":2},{"rt":212968,"response":{"P0_Q0":null,"multiQuestion":"sincere","Explanation":"It doesn't sound scarcastic to me. I would think she might not have enjoyed that much but its not quite scarcasm"},"accuracy":[],"embed_level":"c","question_id":"8c","trial_type":"survey","trial_index":8,"time_elapsed":1394510,"internal_node_id":"0.0-1.0-0.7-0.7","subject_id":"5c7458b0d094c900013c3bf0","study_id":"6259a891582d1b81b094d7e2","session_id":"6260696c2ec2401b5e62f7b7","version":2}]