[{"rt":24265,"stimulus":"<p>In this experiment, you will be presented with 8 scenarios, which you must read carefully.</p><p>After reading each scenario, you will be prompted two comprehension questions: a multiple choice question and a brief open answer question. You will be required to answer both questions for every scenario, meaning 16 questions in total.</p><p>To begin the experiment, hit the space bar.</p>","response":" ","trial_type":"html-keyboard-response","trial_index":0,"time_elapsed":24288,"internal_node_id":"0.0-0.0","subject_id":"61301330347bc397268b7638","study_id":"6259a891582d1b81b094d7e2","session_id":"6260b924544f41b978aa94db","version":2},{"rt":174996,"response":{"P0_Q0":null,"multiQuestion":"sincere","Explanation":"I think Olivia's replies was a genuine compliment. I don't seem to find any form of sarcasm in her response. Alice might not like the hairstyle, but it might look good on her still. "},"accuracy":[],"embed_level":"a","question_id":"1a","trial_type":"survey","trial_index":1,"time_elapsed":199616,"internal_node_id":"0.0-1.0-0.0-0.0","subject_id":"61301330347bc397268b7638","study_id":"6259a891582d1b81b094d7e2","session_id":"6260b924544f41b978aa94db","version":2},{"rt":121923,"response":{"P0_Q0":null,"multiQuestion":"sincere","Explanation":"Jane would read Catherine's message as trying to explain that she feels perfectly well enough to gym and she doesn't need to worry about her"},"accuracy":[],"embed_level":"b","question_id":"2b","trial_type":"survey","trial_index":2,"time_elapsed":321634,"internal_node_id":"0.0-1.0-0.1-0.1","subject_id":"61301330347bc397268b7638","study_id":"6259a891582d1b81b094d7e2","session_id":"6260b924544f41b978aa94db","version":2},{"rt":118287,"response":{"P0_Q0":null,"multiQuestion":"sincere","Explanation":"I think Anastasia recognizes Jack does not bake, but she appreciates his effort."},"accuracy":[],"embed_level":"b","question_id":"3b","trial_type":"survey","trial_index":3,"time_elapsed":440185,"internal_node_id":"0.0-1.0-0.2-0.2","subject_id":"61301330347bc397268b7638","study_id":"6259a891582d1b81b094d7e2","session_id":"6260b924544f41b978aa94db","version":2},{"rt":165902,"response":{"P0_Q0":null,"multiQuestion":"sarcastic","Explanation":"Margaret respond was sarcastic because of her experience with bulldogs. She probably is telling Julia that no matter how cute your puppy is, I hate dogs!!!"},"accuracy":[],"embed_level":"c","question_id":"4c","trial_type":"survey","trial_index":4,"time_elapsed":606206,"internal_node_id":"0.0-1.0-0.3-0.3","subject_id":"61301330347bc397268b7638","study_id":"6259a891582d1b81b094d7e2","session_id":"6260b924544f41b978aa94db","version":2},{"rt":97345,"response":{"P0_Q0":null,"multiQuestion":"sarcastic","Explanation":"Lols...that was obviously a sarcastic remark as Phillip didn't like the jacket. He showed that when he scoffs after seeing the jacket during the interview."},"accuracy":[],"embed_level":"a","question_id":"5a","trial_type":"survey","trial_index":5,"time_elapsed":703694,"internal_node_id":"0.0-1.0-0.4-0.4","subject_id":"61301330347bc397268b7638","study_id":"6259a891582d1b81b094d7e2","session_id":"6260b924544f41b978aa94db","version":2},{"rt":102469,"response":{"P0_Q0":null,"multiQuestion":"sincere","Explanation":"I think Spencer genuinely mean what he said about Spencer in the letter as he enjoys his company. Children always fight and makeup."},"accuracy":[],"embed_level":"b","question_id":"6b","trial_type":"survey","trial_index":6,"time_elapsed":806343,"internal_node_id":"0.0-1.0-0.5-0.5","subject_id":"61301330347bc397268b7638","study_id":"6259a891582d1b81b094d7e2","session_id":"6260b924544f41b978aa94db","version":2},{"rt":100087,"response":{"P0_Q0":null,"multiQuestion":"sincere","Explanation":"Ana genuinely believe that James is a good person as the is still fond of him, and still made him her good friend."},"accuracy":[],"embed_level":"c","question_id":"7c","trial_type":"survey","trial_index":7,"time_elapsed":906559,"internal_node_id":"0.0-1.0-0.6-0.6","subject_id":"61301330347bc397268b7638","study_id":"6259a891582d1b81b094d7e2","session_id":"6260b924544f41b978aa94db","version":2},{"rt":147912,"response":{"P0_Q0":null,"multiQuestion":"sincere","Explanation":"Even though she did not eventually express her love to Kate, I think she genuinely enjoyed the trip. Their conversation and time spent together during the trip was obviously enjoyable. Her remark about Kate was sincere."},"accuracy":[],"embed_level":"c","question_id":"8c","trial_type":"survey","trial_index":8,"time_elapsed":1054583,"internal_node_id":"0.0-1.0-0.7-0.7","subject_id":"61301330347bc397268b7638","study_id":"6259a891582d1b81b094d7e2","session_id":"6260b924544f41b978aa94db","version":2}]