[{"rt":10091,"stimulus":"<p>In this experiment, you will be presented with 8 scenarios, which you must read carefully.</p><p>After reading each scenario, you will be prompted two comprehension questions: a multiple choice question and a brief open answer question. You will be required to answer both questions for every scenario, meaning 16 questions in total.</p><p>To begin the experiment, hit the space bar.</p>","response":" ","trial_type":"html-keyboard-response","trial_index":0,"time_elapsed":10096,"internal_node_id":"0.0-0.0","subject_id":"61364bc261bd2dc68166d055","study_id":"6259a891582d1b81b094d7e2","session_id":"62606cf32daa3ccf08a05878","version":2},{"rt":53192,"response":{"P0_Q0":null,"multiQuestion":"sincere","Explanation":"It sounds genuine "},"accuracy":[],"embed_level":"a","question_id":"1a","trial_type":"survey","trial_index":1,"time_elapsed":63403,"internal_node_id":"0.0-1.0-0.0-0.0","subject_id":"61364bc261bd2dc68166d055","study_id":"6259a891582d1b81b094d7e2","session_id":"62606cf32daa3ccf08a05878","version":2},{"rt":54258,"response":{"P0_Q0":null,"multiQuestion":"sarcastic","Explanation":"its a simile and not actually serious "},"accuracy":[],"embed_level":"b","question_id":"2b","trial_type":"survey","trial_index":2,"time_elapsed":117689,"internal_node_id":"0.0-1.0-0.1-0.1","subject_id":"61364bc261bd2dc68166d055","study_id":"6259a891582d1b81b094d7e2","session_id":"62606cf32daa3ccf08a05878","version":2},{"rt":53719,"response":{"P0_Q0":null,"multiQuestion":"sincere","Explanation":"he may think that she's not noticed"},"accuracy":[],"embed_level":"b","question_id":"3b","trial_type":"survey","trial_index":3,"time_elapsed":171430,"internal_node_id":"0.0-1.0-0.2-0.2","subject_id":"61364bc261bd2dc68166d055","study_id":"6259a891582d1b81b094d7e2","session_id":"62606cf32daa3ccf08a05878","version":2},{"rt":90201,"response":{"P0_Q0":null,"multiQuestion":"sincere","Explanation":"if Julie is aware of the accident then she may let the comment go "},"accuracy":[],"embed_level":"c","question_id":"4c","trial_type":"survey","trial_index":4,"time_elapsed":261653,"internal_node_id":"0.0-1.0-0.3-0.3","subject_id":"61364bc261bd2dc68166d055","study_id":"6259a891582d1b81b094d7e2","session_id":"62606cf32daa3ccf08a05878","version":2},{"rt":123412,"response":{"P0_Q0":null,"multiQuestion":"sincere","Explanation":"as Phillip has been friendly throughout the day he might not think he's being rude"},"accuracy":[],"embed_level":"a","question_id":"5a","trial_type":"survey","trial_index":5,"time_elapsed":385106,"internal_node_id":"0.0-1.0-0.4-0.4","subject_id":"61364bc261bd2dc68166d055","study_id":"6259a891582d1b81b094d7e2","session_id":"62606cf32daa3ccf08a05878","version":2},{"rt":78546,"response":{"P0_Q0":null,"multiQuestion":"sarcastic","Explanation":"he knows they are brothers"},"accuracy":[],"embed_level":"b","question_id":"6b","trial_type":"survey","trial_index":6,"time_elapsed":463676,"internal_node_id":"0.0-1.0-0.5-0.5","subject_id":"61364bc261bd2dc68166d055","study_id":"6259a891582d1b81b094d7e2","session_id":"62606cf32daa3ccf08a05878","version":2},{"rt":39444,"response":{"P0_Q0":null,"multiQuestion":"sincere","Explanation":"as ana has moved on "},"accuracy":[],"embed_level":"c","question_id":"7c","trial_type":"survey","trial_index":7,"time_elapsed":503140,"internal_node_id":"0.0-1.0-0.6-0.6","subject_id":"61364bc261bd2dc68166d055","study_id":"6259a891582d1b81b094d7e2","session_id":"62606cf32daa3ccf08a05878","version":2},{"rt":184626,"response":{"P0_Q0":null,"multiQuestion":"sincere","Explanation":"the trip was intense"},"accuracy":[],"embed_level":"c","question_id":"8c","trial_type":"survey","trial_index":8,"time_elapsed":687786,"internal_node_id":"0.0-1.0-0.7-0.7","subject_id":"61364bc261bd2dc68166d055","study_id":"6259a891582d1b81b094d7e2","session_id":"62606cf32daa3ccf08a05878","version":2}]