[{"rt":12787,"stimulus":"<p>In this experiment, you will be presented with 8 scenarios, which you must read carefully.</p><p>After reading each scenario, you will be prompted two comprehension questions: a multiple choice question and a brief open answer question. You will be required to answer both questions for every scenario, meaning 16 questions in total.</p><p>To begin the experiment, hit the space bar.</p>","response":" ","trial_type":"html-keyboard-response","trial_index":0,"time_elapsed":12789,"internal_node_id":"0.0-0.0","subject_id":"6012b1a15107830438ca04a5","study_id":"6259a891582d1b81b094d7e2","session_id":"62606c3f3d57b988f1ae346b","version":1},{"rt":28301,"response":{"P0_Q0":null,"multiQuestion":"sincere","Explanation":"no reason to doubt her"},"accuracy":[],"embed_level":"b","question_id":"1b","trial_type":"survey","trial_index":1,"time_elapsed":41129,"internal_node_id":"0.0-1.0-0.0-0.0","subject_id":"6012b1a15107830438ca04a5","study_id":"6259a891582d1b81b094d7e2","session_id":"62606c3f3d57b988f1ae346b","version":1},{"rt":46838,"response":{"P0_Q0":null,"multiQuestion":"sincere","Explanation":"she seems pumped up"},"accuracy":[],"embed_level":"c","question_id":"2c","trial_type":"survey","trial_index":2,"time_elapsed":87976,"internal_node_id":"0.0-1.0-0.1-0.1","subject_id":"6012b1a15107830438ca04a5","study_id":"6259a891582d1b81b094d7e2","session_id":"62606c3f3d57b988f1ae346b","version":1},{"rt":32560,"response":{"P0_Q0":null,"multiQuestion":"sincere","Explanation":"they've known eachother a long time"},"accuracy":[],"embed_level":"a","question_id":"3a","trial_type":"survey","trial_index":3,"time_elapsed":120553,"internal_node_id":"0.0-1.0-0.2-0.2","subject_id":"6012b1a15107830438ca04a5","study_id":"6259a891582d1b81b094d7e2","session_id":"62606c3f3d57b988f1ae346b","version":1},{"rt":31525,"response":{"P0_Q0":null,"multiQuestion":"sarcastic","Explanation":"everyone else thinks it's cute and it's small"},"accuracy":[],"embed_level":"b","question_id":"4b","trial_type":"survey","trial_index":4,"time_elapsed":152097,"internal_node_id":"0.0-1.0-0.3-0.3","subject_id":"6012b1a15107830438ca04a5","study_id":"6259a891582d1b81b094d7e2","session_id":"62606c3f3d57b988f1ae346b","version":1},{"rt":36175,"response":{"P0_Q0":null,"multiQuestion":"sarcastic","Explanation":"bad first impression with the scoffing"},"accuracy":[],"embed_level":"c","question_id":"5c","trial_type":"survey","trial_index":5,"time_elapsed":188287,"internal_node_id":"0.0-1.0-0.4-0.4","subject_id":"6012b1a15107830438ca04a5","study_id":"6259a891582d1b81b094d7e2","session_id":"62606c3f3d57b988f1ae346b","version":1},{"rt":19267,"response":{"P0_Q0":null,"multiQuestion":"sincere","Explanation":"no reason to doubt him "},"accuracy":[],"embed_level":"a","question_id":"6a","trial_type":"survey","trial_index":6,"time_elapsed":207567,"internal_node_id":"0.0-1.0-0.5-0.5","subject_id":"6012b1a15107830438ca04a5","study_id":"6259a891582d1b81b094d7e2","session_id":"62606c3f3d57b988f1ae346b","version":1},{"rt":31522,"response":{"P0_Q0":null,"multiQuestion":"sincere","Explanation":"why would she not be sincere if she wanted to"},"accuracy":[],"embed_level":"a","question_id":"7a","trial_type":"survey","trial_index":7,"time_elapsed":239102,"internal_node_id":"0.0-1.0-0.6-0.6","subject_id":"6012b1a15107830438ca04a5","study_id":"6259a891582d1b81b094d7e2","session_id":"62606c3f3d57b988f1ae346b","version":1},{"rt":35258,"response":{"P0_Q0":null,"multiQuestion":"sincere","Explanation":"they'd bonded and gotten along well"},"accuracy":[],"embed_level":"b","question_id":"8b","trial_type":"survey","trial_index":8,"time_elapsed":274374,"internal_node_id":"0.0-1.0-0.7-0.7","subject_id":"6012b1a15107830438ca04a5","study_id":"6259a891582d1b81b094d7e2","session_id":"62606c3f3d57b988f1ae346b","version":1}]