[{"rt":25686,"stimulus":"<p>In this experiment, you will be presented with 8 scenarios, which you must read carefully.</p><p>After reading each scenario, you will be prompted two comprehension questions: a multiple choice question and a brief open answer question. You will be required to answer both questions for every scenario, meaning 16 questions in total.</p><p>To begin the experiment, hit the space bar.</p>","response":" ","trial_type":"html-keyboard-response","trial_index":0,"time_elapsed":25689,"internal_node_id":"0.0-0.0","subject_id":"5f428e5cea3135095f68b561","study_id":"6259a891582d1b81b094d7e2","session_id":"6260b916d29f8419abb0edca","version":0},{"rt":86849,"response":{"P0_Q0":null,"multiQuestion":"sincere","Explanation":"they have done everything together and had a similar identity up until this point so she likely wouldn't know that Alice would be annoyed by her haircut"},"accuracy":[],"embed_level":"c","question_id":"1c","trial_type":"survey","trial_index":1,"time_elapsed":112596,"internal_node_id":"0.0-1.0-0.0-0.0","subject_id":"5f428e5cea3135095f68b561","study_id":"6259a891582d1b81b094d7e2","session_id":"6260b916d29f8419abb0edca","version":0},{"rt":64568,"response":{"P0_Q0":null,"multiQuestion":"sincere","Explanation":"Jane probably knows that Catherine was excited to go back to the gym"},"accuracy":[],"embed_level":"a","question_id":"2a","trial_type":"survey","trial_index":2,"time_elapsed":177178,"internal_node_id":"0.0-1.0-0.1-0.1","subject_id":"5f428e5cea3135095f68b561","study_id":"6259a891582d1b81b094d7e2","session_id":"6260b916d29f8419abb0edca","version":0},{"rt":90149,"response":{"P0_Q0":null,"multiQuestion":"sincere","Explanation":"Jack doesn't seem aware that his cake was messed up so has no reason to think she wouldn't have liked it"},"accuracy":[],"embed_level":"c","question_id":"3c","trial_type":"survey","trial_index":3,"time_elapsed":267349,"internal_node_id":"0.0-1.0-0.2-0.2","subject_id":"5f428e5cea3135095f68b561","study_id":"6259a891582d1b81b094d7e2","session_id":"6260b916d29f8419abb0edca","version":0},{"rt":135820,"response":{"P0_Q0":null,"multiQuestion":"sarcastic","Explanation":"Julia and Margaret just met so Julia most likely doesn't know about Margaret's aversion to dogs/bulldogs, plus describing a puppy as \"scary\" would likely be interpreted as silly. "},"accuracy":[],"embed_level":"a","question_id":"4a","trial_type":"survey","trial_index":4,"time_elapsed":403203,"internal_node_id":"0.0-1.0-0.3-0.3","subject_id":"5f428e5cea3135095f68b561","study_id":"6259a891582d1b81b094d7e2","session_id":"6260b916d29f8419abb0edca","version":0},{"rt":133140,"response":{"P0_Q0":null,"multiQuestion":"sincere","Explanation":"Phillip was polite and friendly to Eric plus as the manager of a fashion magazine he must take clothes seriously so Eric has no reason to think that any comments about his clothing would be anything other than sincere."},"accuracy":[],"embed_level":"b","question_id":"5b","trial_type":"survey","trial_index":5,"time_elapsed":536365,"internal_node_id":"0.0-1.0-0.4-0.4","subject_id":"5f428e5cea3135095f68b561","study_id":"6259a891582d1b81b094d7e2","session_id":"6260b916d29f8419abb0edca","version":0},{"rt":79650,"response":{"P0_Q0":null,"multiQuestion":"sarcastic","Explanation":"David has only seen them argue plus it's quite common for siblings to be rude/sarcastic about each other."},"accuracy":[],"embed_level":"c","question_id":"6c","trial_type":"survey","trial_index":6,"time_elapsed":616041,"internal_node_id":"0.0-1.0-0.5-0.5","subject_id":"5f428e5cea3135095f68b561","study_id":"6259a891582d1b81b094d7e2","session_id":"6260b916d29f8419abb0edca","version":0},{"rt":86479,"response":{"P0_Q0":null,"multiQuestion":"sincere","Explanation":"Even though Ken hasn't talked to Ana since her break up with James he likely still knows that they're on good terms now from other people. "},"accuracy":[],"embed_level":"b","question_id":"7b","trial_type":"survey","trial_index":7,"time_elapsed":702538,"internal_node_id":"0.0-1.0-0.6-0.6","subject_id":"5f428e5cea3135095f68b561","study_id":"6259a891582d1b81b094d7e2","session_id":"6260b916d29f8419abb0edca","version":0},{"rt":152452,"response":{"P0_Q0":null,"multiQuestion":"sincere","Explanation":"Elizabeth probably heard/saw via social media or elsewhere that Mary was having a good time on the trip while she was on it and since this is shortly after the trip she probably hasn't yet realised that Mary is bitter/reluctant to talk about the trip yet"},"accuracy":[],"embed_level":"a","question_id":"8a","trial_type":"survey","trial_index":8,"time_elapsed":855010,"internal_node_id":"0.0-1.0-0.7-0.7","subject_id":"5f428e5cea3135095f68b561","study_id":"6259a891582d1b81b094d7e2","session_id":"6260b916d29f8419abb0edca","version":0}]