[{"rt":35657,"stimulus":"<p>In this experiment, you will be presented with 8 scenarios, which you must read carefully.</p><p>After reading each scenario, you will be prompted two comprehension questions: a multiple choice question and a brief open answer question. You will be required to answer both questions for every scenario, meaning 16 questions in total.</p><p>To begin the experiment, hit the space bar.</p>","response":" ","trial_type":"html-keyboard-response","trial_index":0,"time_elapsed":35660,"internal_node_id":"0.0-0.0","subject_id":"595d3afcdd044900012ce78a","study_id":"6259a891582d1b81b094d7e2","session_id":"6260b9376dba0e8c232b7be4","version":0},{"rt":55587,"response":{"P0_Q0":null,"multiQuestion":"sincere","Explanation":"She does not want to upset her friend"},"accuracy":[],"embed_level":"c","question_id":"1c","trial_type":"survey","trial_index":1,"time_elapsed":91296,"internal_node_id":"0.0-1.0-0.0-0.0","subject_id":"595d3afcdd044900012ce78a","study_id":"6259a891582d1b81b094d7e2","session_id":"6260b9376dba0e8c232b7be4","version":0},{"rt":37565,"response":{"P0_Q0":null,"multiQuestion":"sarcastic","Explanation":"It is just a figure of speech"},"accuracy":[],"embed_level":"a","question_id":"2a","trial_type":"survey","trial_index":2,"time_elapsed":128881,"internal_node_id":"0.0-1.0-0.1-0.1","subject_id":"595d3afcdd044900012ce78a","study_id":"6259a891582d1b81b094d7e2","session_id":"6260b9376dba0e8c232b7be4","version":0},{"rt":37313,"response":{"P0_Q0":null,"multiQuestion":"sincere","Explanation":"It was a thoughtful gesture from a friend"},"accuracy":[],"embed_level":"c","question_id":"3c","trial_type":"survey","trial_index":3,"time_elapsed":166205,"internal_node_id":"0.0-1.0-0.2-0.2","subject_id":"595d3afcdd044900012ce78a","study_id":"6259a891582d1b81b094d7e2","session_id":"6260b9376dba0e8c232b7be4","version":0},{"rt":28313,"response":{"P0_Q0":null,"multiQuestion":"sincere","Explanation":"She has an aversion to them"},"accuracy":[],"embed_level":"a","question_id":"4a","trial_type":"survey","trial_index":4,"time_elapsed":194538,"internal_node_id":"0.0-1.0-0.3-0.3","subject_id":"595d3afcdd044900012ce78a","study_id":"6259a891582d1b81b094d7e2","session_id":"6260b9376dba0e8c232b7be4","version":0},{"rt":45679,"response":{"P0_Q0":null,"multiQuestion":"sarcastic","Explanation":"He has already mocked it"},"accuracy":[],"embed_level":"b","question_id":"5b","trial_type":"survey","trial_index":5,"time_elapsed":240237,"internal_node_id":"0.0-1.0-0.4-0.4","subject_id":"595d3afcdd044900012ce78a","study_id":"6259a891582d1b81b094d7e2","session_id":"6260b9376dba0e8c232b7be4","version":0},{"rt":45347,"response":{"P0_Q0":null,"multiQuestion":"sincere","Explanation":"Despite their fights, they are close"},"accuracy":[],"embed_level":"c","question_id":"6c","trial_type":"survey","trial_index":6,"time_elapsed":285595,"internal_node_id":"0.0-1.0-0.5-0.5","subject_id":"595d3afcdd044900012ce78a","study_id":"6259a891582d1b81b094d7e2","session_id":"6260b9376dba0e8c232b7be4","version":0},{"rt":57077,"response":{"P0_Q0":null,"multiQuestion":"sincere","Explanation":"They have remained friends and still keep in contact"},"accuracy":[],"embed_level":"b","question_id":"7b","trial_type":"survey","trial_index":7,"time_elapsed":342688,"internal_node_id":"0.0-1.0-0.6-0.6","subject_id":"595d3afcdd044900012ce78a","study_id":"6259a891582d1b81b094d7e2","session_id":"6260b9376dba0e8c232b7be4","version":0},{"rt":57672,"response":{"P0_Q0":null,"multiQuestion":"sincere","Explanation":"She enjoyed the trip"},"accuracy":[],"embed_level":"a","question_id":"8a","trial_type":"survey","trial_index":8,"time_elapsed":400376,"internal_node_id":"0.0-1.0-0.7-0.7","subject_id":"595d3afcdd044900012ce78a","study_id":"6259a891582d1b81b094d7e2","session_id":"6260b9376dba0e8c232b7be4","version":0}]