[{"rt":11813,"stimulus":"<p>In this experiment, you will be presented with 8 scenarios, which you must read carefully.</p><p>After reading each scenario, you will be prompted two comprehension questions: a multiple choice question and a brief open answer question. You will be required to answer both questions for every scenario, meaning 16 questions in total.</p><p>To begin the experiment, hit the space bar.</p>","response":" ","trial_type":"html-keyboard-response","trial_index":0,"time_elapsed":11822,"internal_node_id":"0.0-0.0","subject_id":"5a08ea4ab921bc0001e1c10a","study_id":"6259a891582d1b81b094d7e2","session_id":"6260b921f387689102f30053","version":2},{"rt":64294,"response":{"P0_Q0":null,"multiQuestion":"sincere","Explanation":"they are friends and Olivia doesnt think that Alice have reason to lie"},"accuracy":[],"embed_level":"a","question_id":"1a","trial_type":"survey","trial_index":1,"time_elapsed":76339,"internal_node_id":"0.0-1.0-0.0-0.0","subject_id":"5a08ea4ab921bc0001e1c10a","study_id":"6259a891582d1b81b094d7e2","session_id":"6260b921f387689102f30053","version":2},{"rt":100785,"response":{"P0_Q0":null,"multiQuestion":"sincere","Explanation":"Catherine knows her partner worries about her, so she tells the truth"},"accuracy":[],"embed_level":"b","question_id":"2b","trial_type":"survey","trial_index":2,"time_elapsed":177191,"internal_node_id":"0.0-1.0-0.1-0.1","subject_id":"5a08ea4ab921bc0001e1c10a","study_id":"6259a891582d1b81b094d7e2","session_id":"6260b921f387689102f30053","version":2},{"rt":97089,"response":{"P0_Q0":null,"multiQuestion":"sincere","Explanation":"He didnt notice that he put salt instead of sugar, so cant think that anastasia is sarcastic"},"accuracy":[],"embed_level":"b","question_id":"3b","trial_type":"survey","trial_index":3,"time_elapsed":274369,"internal_node_id":"0.0-1.0-0.2-0.2","subject_id":"5a08ea4ab921bc0001e1c10a","study_id":"6259a891582d1b81b094d7e2","session_id":"6260b921f387689102f30053","version":2},{"rt":110295,"response":{"P0_Q0":null,"multiQuestion":"sarcastic","Explanation":"Julia doesnt know about margarets past, so going to think she is being sarcastic"},"accuracy":[],"embed_level":"c","question_id":"4c","trial_type":"survey","trial_index":4,"time_elapsed":384742,"internal_node_id":"0.0-1.0-0.3-0.3","subject_id":"5a08ea4ab921bc0001e1c10a","study_id":"6259a891582d1b81b094d7e2","session_id":"6260b921f387689102f30053","version":2},{"rt":71148,"response":{"P0_Q0":null,"multiQuestion":"sincere","Explanation":"As Eric really likes is own jacket he wont think other people will not"},"accuracy":[],"embed_level":"a","question_id":"5a","trial_type":"survey","trial_index":5,"time_elapsed":455963,"internal_node_id":"0.0-1.0-0.4-0.4","subject_id":"5a08ea4ab921bc0001e1c10a","study_id":"6259a891582d1b81b094d7e2","session_id":"6260b921f387689102f30053","version":2},{"rt":88945,"response":{"P0_Q0":null,"multiQuestion":"sarcastic","Explanation":"they dont know each other very well, and as david saw the argument , think that its the way they are all the time"},"accuracy":[],"embed_level":"b","question_id":"6b","trial_type":"survey","trial_index":6,"time_elapsed":544992,"internal_node_id":"0.0-1.0-0.5-0.5","subject_id":"5a08ea4ab921bc0001e1c10a","study_id":"6259a891582d1b81b094d7e2","session_id":"6260b921f387689102f30053","version":2},{"rt":97808,"response":{"P0_Q0":null,"multiQuestion":"sarcastic","Explanation":"the person going to think about the time they knew each other and so going to make judgement about that time"},"accuracy":[],"embed_level":"c","question_id":"7c","trial_type":"survey","trial_index":7,"time_elapsed":642865,"internal_node_id":"0.0-1.0-0.6-0.6","subject_id":"5a08ea4ab921bc0001e1c10a","study_id":"6259a891582d1b81b094d7e2","session_id":"6260b921f387689102f30053","version":2},{"rt":98079,"response":{"P0_Q0":null,"multiQuestion":"sincere","Explanation":"she doesnt know what the other was thinking, so no reason to be sarcastic"},"accuracy":[],"embed_level":"c","question_id":"8c","trial_type":"survey","trial_index":8,"time_elapsed":741021,"internal_node_id":"0.0-1.0-0.7-0.7","subject_id":"5a08ea4ab921bc0001e1c10a","study_id":"6259a891582d1b81b094d7e2","session_id":"6260b921f387689102f30053","version":2}]