[{"rt":9905,"stimulus":"<p>In this experiment, you will be presented with 8 scenarios, which you must read carefully.</p><p>After reading each scenario, you will be prompted two comprehension questions: a multiple choice question and a brief open answer question. You will be required to answer both questions for every scenario, meaning 16 questions in total.</p><p>To begin the experiment, hit the space bar.</p>","response":" ","trial_type":"html-keyboard-response","trial_index":0,"time_elapsed":9909,"internal_node_id":"0.0-0.0","subject_id":"5f88236b8e322b27a9dc8da9","study_id":"6259a891582d1b81b094d7e2","session_id":"6260b917e8106988ef6571ed","version":0},{"rt":94781,"response":{"P0_Q0":null,"multiQuestion":"sincere","Explanation":"You would not expect your friend to be sarcastic about your new hairstyle"},"accuracy":[],"embed_level":"c","question_id":"1c","trial_type":"survey","trial_index":1,"time_elapsed":104799,"internal_node_id":"0.0-1.0-0.0-0.0","subject_id":"5f88236b8e322b27a9dc8da9","study_id":"6259a891582d1b81b094d7e2","session_id":"6260b917e8106988ef6571ed","version":0},{"rt":44100,"response":{"P0_Q0":null,"multiQuestion":"sarcastic","Explanation":"There is no way she could actually lift a cow."},"accuracy":[],"embed_level":"a","question_id":"2a","trial_type":"survey","trial_index":2,"time_elapsed":148921,"internal_node_id":"0.0-1.0-0.1-0.1","subject_id":"5f88236b8e322b27a9dc8da9","study_id":"6259a891582d1b81b094d7e2","session_id":"6260b917e8106988ef6571ed","version":0},{"rt":69642,"response":{"P0_Q0":null,"multiQuestion":"sincere","Explanation":"You wouldn't want to hurt your friends feelings especially when they've done something so kind."},"accuracy":[],"embed_level":"c","question_id":"3c","trial_type":"survey","trial_index":3,"time_elapsed":218596,"internal_node_id":"0.0-1.0-0.2-0.2","subject_id":"5f88236b8e322b27a9dc8da9","study_id":"6259a891582d1b81b094d7e2","session_id":"6260b917e8106988ef6571ed","version":0},{"rt":44942,"response":{"P0_Q0":null,"multiQuestion":"sarcastic","Explanation":"Most people would not actually be unkind about your dog."},"accuracy":[],"embed_level":"a","question_id":"4a","trial_type":"survey","trial_index":4,"time_elapsed":263581,"internal_node_id":"0.0-1.0-0.3-0.3","subject_id":"5f88236b8e322b27a9dc8da9","study_id":"6259a891582d1b81b094d7e2","session_id":"6260b917e8106988ef6571ed","version":0},{"rt":45337,"response":{"P0_Q0":null,"multiQuestion":"sincere","Explanation":"It would be unprofessional to be sarcastic."},"accuracy":[],"embed_level":"b","question_id":"5b","trial_type":"survey","trial_index":5,"time_elapsed":308959,"internal_node_id":"0.0-1.0-0.4-0.4","subject_id":"5f88236b8e322b27a9dc8da9","study_id":"6259a891582d1b81b094d7e2","session_id":"6260b917e8106988ef6571ed","version":0},{"rt":63989,"response":{"P0_Q0":null,"multiQuestion":"sarcastic","Explanation":"david knows that Jeremy does not actually think this."},"accuracy":[],"embed_level":"c","question_id":"6c","trial_type":"survey","trial_index":6,"time_elapsed":372992,"internal_node_id":"0.0-1.0-0.5-0.5","subject_id":"5f88236b8e322b27a9dc8da9","study_id":"6259a891582d1b81b094d7e2","session_id":"6260b917e8106988ef6571ed","version":0},{"rt":50136,"response":{"P0_Q0":null,"multiQuestion":"sincere","Explanation":"Couples who split up can still be friends."},"accuracy":[],"embed_level":"b","question_id":"7b","trial_type":"survey","trial_index":7,"time_elapsed":423167,"internal_node_id":"0.0-1.0-0.6-0.6","subject_id":"5f88236b8e322b27a9dc8da9","study_id":"6259a891582d1b81b094d7e2","session_id":"6260b917e8106988ef6571ed","version":0},{"rt":59688,"response":{"P0_Q0":null,"multiQuestion":"sincere","Explanation":"Elizabeth does not know that May was going to confess to Kate her crush."},"accuracy":[],"embed_level":"a","question_id":"8a","trial_type":"survey","trial_index":8,"time_elapsed":482891,"internal_node_id":"0.0-1.0-0.7-0.7","subject_id":"5f88236b8e322b27a9dc8da9","study_id":"6259a891582d1b81b094d7e2","session_id":"6260b917e8106988ef6571ed","version":0}]