[{"rt":8526,"stimulus":"<p>In this experiment, you will be presented with 8 scenarios, which you must read carefully.</p><p>After reading each scenario, you will be prompted two comprehension questions: a multiple choice question and a brief open answer question. You will be required to answer both questions for every scenario, meaning 16 questions in total.</p><p>To begin the experiment, hit the space bar.</p>","response":" ","trial_type":"html-keyboard-response","trial_index":0,"time_elapsed":8528,"internal_node_id":"0.0-0.0","subject_id":"5bb535574cb73b00011437d0","study_id":"6259a891582d1b81b094d7e2","session_id":"6260b9c1ff4a7987b949f2ee","version":0},{"rt":106494,"response":{"P0_Q0":null,"multiQuestion":"sincere","Explanation":"if she always loved to do things in the same way before, there's no reason to think this time is different"},"accuracy":[],"embed_level":"c","question_id":"1c","trial_type":"survey","trial_index":1,"time_elapsed":115083,"internal_node_id":"0.0-1.0-0.0-0.0","subject_id":"5bb535574cb73b00011437d0","study_id":"6259a891582d1b81b094d7e2","session_id":"6260b9c1ff4a7987b949f2ee","version":0},{"rt":58345,"response":{"P0_Q0":null,"multiQuestion":"sarcastic","Explanation":"you can't lift a cow"},"accuracy":[],"embed_level":"a","question_id":"2a","trial_type":"survey","trial_index":2,"time_elapsed":173447,"internal_node_id":"0.0-1.0-0.1-0.1","subject_id":"5bb535574cb73b00011437d0","study_id":"6259a891582d1b81b094d7e2","session_id":"6260b9c1ff4a7987b949f2ee","version":0},{"rt":79681,"response":{"P0_Q0":null,"multiQuestion":"sincere","Explanation":"he has no reason to think the opposite as he isn't aware of his mistake"},"accuracy":[],"embed_level":"c","question_id":"3c","trial_type":"survey","trial_index":3,"time_elapsed":253158,"internal_node_id":"0.0-1.0-0.2-0.2","subject_id":"5bb535574cb73b00011437d0","study_id":"6259a891582d1b81b094d7e2","session_id":"6260b9c1ff4a7987b949f2ee","version":0},{"rt":86816,"response":{"P0_Q0":null,"multiQuestion":"sincere","Explanation":"people have different tastes and aversions"},"accuracy":[],"embed_level":"a","question_id":"4a","trial_type":"survey","trial_index":4,"time_elapsed":340002,"internal_node_id":"0.0-1.0-0.3-0.3","subject_id":"5bb535574cb73b00011437d0","study_id":"6259a891582d1b81b094d7e2","session_id":"6260b9c1ff4a7987b949f2ee","version":0},{"rt":76563,"response":{"P0_Q0":null,"multiQuestion":"sincere","Explanation":"eric has no reason to think that particular brand is bad"},"accuracy":[],"embed_level":"b","question_id":"5b","trial_type":"survey","trial_index":5,"time_elapsed":416595,"internal_node_id":"0.0-1.0-0.4-0.4","subject_id":"5bb535574cb73b00011437d0","study_id":"6259a891582d1b81b094d7e2","session_id":"6260b9c1ff4a7987b949f2ee","version":0},{"rt":59357,"response":{"P0_Q0":null,"multiQuestion":"sarcastic","Explanation":"he's just seen them fight"},"accuracy":[],"embed_level":"c","question_id":"6c","trial_type":"survey","trial_index":6,"time_elapsed":475984,"internal_node_id":"0.0-1.0-0.5-0.5","subject_id":"5bb535574cb73b00011437d0","study_id":"6259a891582d1b81b094d7e2","session_id":"6260b9c1ff4a7987b949f2ee","version":0},{"rt":68678,"response":{"P0_Q0":null,"multiQuestion":"sincere","Explanation":"sometimes fights don't change feelings"},"accuracy":[],"embed_level":"b","question_id":"7b","trial_type":"survey","trial_index":7,"time_elapsed":544687,"internal_node_id":"0.0-1.0-0.6-0.6","subject_id":"5bb535574cb73b00011437d0","study_id":"6259a891582d1b81b094d7e2","session_id":"6260b9c1ff4a7987b949f2ee","version":0},{"rt":62083,"response":{"P0_Q0":null,"multiQuestion":"sincere","Explanation":"elizabeth gave her no reason to think the opposite"},"accuracy":[],"embed_level":"a","question_id":"8a","trial_type":"survey","trial_index":8,"time_elapsed":606790,"internal_node_id":"0.0-1.0-0.7-0.7","subject_id":"5bb535574cb73b00011437d0","study_id":"6259a891582d1b81b094d7e2","session_id":"6260b9c1ff4a7987b949f2ee","version":0}]