[{"rt":5402,"stimulus":"<p>In this experiment, you will be presented with 8 scenarios, which you must read carefully.</p><p>After reading each scenario, you will be prompted two comprehension questions: a multiple choice question and a brief open answer question. You will be required to answer both questions for every scenario, meaning 16 questions in total.</p><p>To begin the experiment, hit the space bar.</p>","response":" ","trial_type":"html-keyboard-response","trial_index":0,"time_elapsed":5437,"internal_node_id":"0.0-0.0","subject_id":"55cff4a834e9060012e57407","study_id":"6259a891582d1b81b094d7e2","session_id":"6260b94bd62e334a806163a9","version":0},{"rt":64637,"response":{"P0_Q0":null,"multiQuestion":"sarcastic","Explanation":"I think that the compliment is very passive aggressive, and Alice is probably quite bitter about Olivia copying her hairstyle."},"accuracy":[],"embed_level":"c","question_id":"1c","trial_type":"survey","trial_index":1,"time_elapsed":70152,"internal_node_id":"0.0-1.0-0.0-0.0","subject_id":"55cff4a834e9060012e57407","study_id":"6259a891582d1b81b094d7e2","session_id":"6260b94bd62e334a806163a9","version":0},{"rt":52755,"response":{"P0_Q0":null,"multiQuestion":"sincere","Explanation":"I think that Jane is genuinely concerned about Catherine and I don't think her message sounds insincere at all - she is worried about her partner."},"accuracy":[],"embed_level":"a","question_id":"2a","trial_type":"survey","trial_index":2,"time_elapsed":122946,"internal_node_id":"0.0-1.0-0.1-0.1","subject_id":"55cff4a834e9060012e57407","study_id":"6259a891582d1b81b094d7e2","session_id":"6260b94bd62e334a806163a9","version":0},{"rt":67131,"response":{"P0_Q0":null,"multiQuestion":"sincere","Explanation":"I think that Anastasia probably didn't want to upset Jack as she knew he'd tried his best despite being a poor cook. She probably wanted to just keep the real reaction to herself without hurting his feelings."},"accuracy":[],"embed_level":"c","question_id":"3c","trial_type":"survey","trial_index":3,"time_elapsed":190129,"internal_node_id":"0.0-1.0-0.2-0.2","subject_id":"55cff4a834e9060012e57407","study_id":"6259a891582d1b81b094d7e2","session_id":"6260b94bd62e334a806163a9","version":0},{"rt":37972,"response":{"P0_Q0":null,"multiQuestion":"sincere","Explanation":"I think Margaret was just giving her true and honest opinion about the dog, and wasn't trying to hide her dislike. She was authentic about her response."},"accuracy":[],"embed_level":"a","question_id":"4a","trial_type":"survey","trial_index":4,"time_elapsed":228138,"internal_node_id":"0.0-1.0-0.3-0.3","subject_id":"55cff4a834e9060012e57407","study_id":"6259a891582d1b81b094d7e2","session_id":"6260b94bd62e334a806163a9","version":0},{"rt":99755,"response":{"P0_Q0":null,"multiQuestion":"sincere","Explanation":"On one hand, I think he could be being sarcastic but I think he is being sincere in that he just wants to make the candidate feel some confidence after the interview and after Philip was so polite and friendly. He kept his opinion to himself and tried to give Philip a bit of a boost."},"accuracy":[],"embed_level":"b","question_id":"5b","trial_type":"survey","trial_index":5,"time_elapsed":327930,"internal_node_id":"0.0-1.0-0.4-0.4","subject_id":"55cff4a834e9060012e57407","study_id":"6259a891582d1b81b094d7e2","session_id":"6260b94bd62e334a806163a9","version":0},{"rt":59413,"response":{"P0_Q0":null,"multiQuestion":"sincere","Explanation":"As mentioned in the text, despite the fights, Jeremy feels generally very positive about his brother and wants to show David that really, he does love his brother."},"accuracy":[],"embed_level":"c","question_id":"6c","trial_type":"survey","trial_index":6,"time_elapsed":387389,"internal_node_id":"0.0-1.0-0.5-0.5","subject_id":"55cff4a834e9060012e57407","study_id":"6259a891582d1b81b094d7e2","session_id":"6260b94bd62e334a806163a9","version":0},{"rt":50264,"response":{"P0_Q0":null,"multiQuestion":"sincere","Explanation":"I would hope that Ana and Ken had spoken about James before, and since he has asked for her real opinion, believes what Ana has said about her ex."},"accuracy":[],"embed_level":"b","question_id":"7b","trial_type":"survey","trial_index":7,"time_elapsed":437689,"internal_node_id":"0.0-1.0-0.6-0.6","subject_id":"55cff4a834e9060012e57407","study_id":"6259a891582d1b81b094d7e2","session_id":"6260b94bd62e334a806163a9","version":0},{"rt":74980,"response":{"P0_Q0":null,"multiQuestion":"sincere","Explanation":"Since Elizabeth probably doesn't know the backstory, she probably did think May was being sincere and that she had had a nice time."},"accuracy":[],"embed_level":"a","question_id":"8a","trial_type":"survey","trial_index":8,"time_elapsed":512703,"internal_node_id":"0.0-1.0-0.7-0.7","subject_id":"55cff4a834e9060012e57407","study_id":"6259a891582d1b81b094d7e2","session_id":"6260b94bd62e334a806163a9","version":0}]