[{"rt":14065,"stimulus":"<p>In this experiment, you will be presented with 8 scenarios, which you must read carefully.</p><p>After reading each scenario, you will be prompted two comprehension questions: a multiple choice question and a brief open answer question. You will be required to answer both questions for every scenario, meaning 16 questions in total.</p><p>To begin the experiment, hit the space bar.</p>","response":" ","trial_type":"html-keyboard-response","trial_index":0,"time_elapsed":14084,"internal_node_id":"0.0-0.0","subject_id":"615b2767fab8e27015ae6286","study_id":"6259a891582d1b81b094d7e2","session_id":"626077df55f9cf085972ceb0","version":1},{"rt":69422,"response":{"P0_Q0":null,"multiQuestion":"sincere","Explanation":"she would trust what she was saying to her as she was happy with her hairstyle and wouldnt have realised that Alice was annoyed"},"accuracy":[],"embed_level":"b","question_id":"1b","trial_type":"survey","trial_index":1,"time_elapsed":83635,"internal_node_id":"0.0-1.0-0.0-0.0","subject_id":"615b2767fab8e27015ae6286","study_id":"6259a891582d1b81b094d7e2","session_id":"626077df55f9cf085972ceb0","version":1},{"rt":124186,"response":{"P0_Q0":null,"multiQuestion":"sincere","Explanation":"i choose this as i feel that Jane would have understood the sentiment behind it that Catherine was feeling strong, and used a cow as an analogy"},"accuracy":[],"embed_level":"c","question_id":"2c","trial_type":"survey","trial_index":2,"time_elapsed":207882,"internal_node_id":"0.0-1.0-0.1-0.1","subject_id":"615b2767fab8e27015ae6286","study_id":"6259a891582d1b81b094d7e2","session_id":"626077df55f9cf085972ceb0","version":1},{"rt":62614,"response":{"P0_Q0":null,"multiQuestion":"sincere","Explanation":"Jack wouldnt have realised his mistake, so would have taken the message at face value"},"accuracy":[],"embed_level":"a","question_id":"3a","trial_type":"survey","trial_index":3,"time_elapsed":270585,"internal_node_id":"0.0-1.0-0.2-0.2","subject_id":"615b2767fab8e27015ae6286","study_id":"6259a891582d1b81b094d7e2","session_id":"626077df55f9cf085972ceb0","version":1},{"rt":110266,"response":{"P0_Q0":null,"multiQuestion":"sincere","Explanation":"she doesnt know her well, so wouldnt be messing around, also that is her first response to the photo with no emojis to say otherwise"},"accuracy":[],"embed_level":"b","question_id":"4b","trial_type":"survey","trial_index":4,"time_elapsed":380931,"internal_node_id":"0.0-1.0-0.3-0.3","subject_id":"615b2767fab8e27015ae6286","study_id":"6259a891582d1b81b094d7e2","session_id":"626077df55f9cf085972ceb0","version":1},{"rt":82237,"response":{"P0_Q0":null,"multiQuestion":"sincere","Explanation":"eric would not have known any of the backstory between the two companies and would have accepted at face value the sentiment"},"accuracy":[],"embed_level":"c","question_id":"5c","trial_type":"survey","trial_index":5,"time_elapsed":463248,"internal_node_id":"0.0-1.0-0.4-0.4","subject_id":"615b2767fab8e27015ae6286","study_id":"6259a891582d1b81b094d7e2","session_id":"626077df55f9cf085972ceb0","version":1},{"rt":155622,"response":{"P0_Q0":null,"multiQuestion":"sincere","Explanation":"no reason to suspect he would be anything other than genuine, as their relationship as brothers goes deeper than just arguments"},"accuracy":[],"embed_level":"a","question_id":"6a","trial_type":"survey","trial_index":6,"time_elapsed":618937,"internal_node_id":"0.0-1.0-0.5-0.5","subject_id":"615b2767fab8e27015ae6286","study_id":"6259a891582d1b81b094d7e2","session_id":"626077df55f9cf085972ceb0","version":1},{"rt":100312,"response":{"P0_Q0":null,"multiQuestion":"sincere","Explanation":"just because the relationship eneded with a fight doesnt mean Ana cant think of him as great"},"accuracy":[],"embed_level":"a","question_id":"7a","trial_type":"survey","trial_index":7,"time_elapsed":719319,"internal_node_id":"0.0-1.0-0.6-0.6","subject_id":"615b2767fab8e27015ae6286","study_id":"6259a891582d1b81b094d7e2","session_id":"626077df55f9cf085972ceb0","version":1},{"rt":140058,"response":{"P0_Q0":null,"multiQuestion":"sincere","Explanation":"she answered the question, though using the word nice she may have sussed that there might have been a bit more to it"},"accuracy":[],"embed_level":"b","question_id":"8b","trial_type":"survey","trial_index":8,"time_elapsed":859456,"internal_node_id":"0.0-1.0-0.7-0.7","subject_id":"615b2767fab8e27015ae6286","study_id":"6259a891582d1b81b094d7e2","session_id":"626077df55f9cf085972ceb0","version":1}]