[{"rt":27263,"stimulus":"<p>In this experiment, you will be presented with 8 scenarios, which you must read carefully.</p><p>After reading each scenario, you will be prompted two comprehension questions: a multiple choice question and a brief open answer question. You will be required to answer both questions for every scenario, meaning 16 questions in total.</p><p>To begin the experiment, hit the space bar.</p>","response":" ","trial_type":"html-keyboard-response","trial_index":0,"time_elapsed":27281,"internal_node_id":"0.0-0.0","subject_id":"5da39d242a298b0012cd4393","study_id":"6259a891582d1b81b094d7e2","session_id":"626069a30cafe3a1d59a1ca6","version":2},{"rt":97615,"response":{"P0_Q0":null,"multiQuestion":"sincere","Explanation":"she's being polite"},"accuracy":[],"embed_level":"a","question_id":"1a","trial_type":"survey","trial_index":1,"time_elapsed":125385,"internal_node_id":"0.0-1.0-0.0-0.0","subject_id":"5da39d242a298b0012cd4393","study_id":"6259a891582d1b81b094d7e2","session_id":"626069a30cafe3a1d59a1ca6","version":2},{"rt":207121,"response":{"P0_Q0":null,"multiQuestion":"sincere","Explanation":"they're just using a similily"},"accuracy":[],"embed_level":"b","question_id":"2b","trial_type":"survey","trial_index":2,"time_elapsed":332634,"internal_node_id":"0.0-1.0-0.1-0.1","subject_id":"5da39d242a298b0012cd4393","study_id":"6259a891582d1b81b094d7e2","session_id":"626069a30cafe3a1d59a1ca6","version":2},{"rt":144187,"response":{"P0_Q0":null,"multiQuestion":"sincere","Explanation":"she's trying to protect his feelings"},"accuracy":[],"embed_level":"b","question_id":"3b","trial_type":"survey","trial_index":3,"time_elapsed":477061,"internal_node_id":"0.0-1.0-0.2-0.2","subject_id":"5da39d242a298b0012cd4393","study_id":"6259a891582d1b81b094d7e2","session_id":"626069a30cafe3a1d59a1ca6","version":2},{"rt":125751,"response":{"P0_Q0":null,"multiQuestion":"sincere","Explanation":"she's expressing her feelings"},"accuracy":[],"embed_level":"c","question_id":"4c","trial_type":"survey","trial_index":4,"time_elapsed":602988,"internal_node_id":"0.0-1.0-0.3-0.3","subject_id":"5da39d242a298b0012cd4393","study_id":"6259a891582d1b81b094d7e2","session_id":"626069a30cafe3a1d59a1ca6","version":2},{"rt":253742,"response":{"P0_Q0":null,"multiQuestion":"sarcastic","Explanation":"he knows it was bad"},"accuracy":[],"embed_level":"a","question_id":"5a","trial_type":"survey","trial_index":5,"time_elapsed":856927,"internal_node_id":"0.0-1.0-0.4-0.4","subject_id":"5da39d242a298b0012cd4393","study_id":"6259a891582d1b81b094d7e2","session_id":"626069a30cafe3a1d59a1ca6","version":2},{"rt":200812,"response":{"P0_Q0":null,"multiQuestion":"sarcastic","Explanation":"I'm not sure, just gut"},"accuracy":[],"embed_level":"b","question_id":"6b","trial_type":"survey","trial_index":6,"time_elapsed":1057959,"internal_node_id":"0.0-1.0-0.5-0.5","subject_id":"5da39d242a298b0012cd4393","study_id":"6259a891582d1b81b094d7e2","session_id":"626069a30cafe3a1d59a1ca6","version":2},{"rt":120700,"response":{"P0_Q0":null,"multiQuestion":"sincere","Explanation":"she genuinely feels this"},"accuracy":[],"embed_level":"c","question_id":"7c","trial_type":"survey","trial_index":7,"time_elapsed":1178842,"internal_node_id":"0.0-1.0-0.6-0.6","subject_id":"5da39d242a298b0012cd4393","study_id":"6259a891582d1b81b094d7e2","session_id":"626069a30cafe3a1d59a1ca6","version":2},{"rt":100242,"response":{"P0_Q0":null,"multiQuestion":"sincere","Explanation":"because the trip itself was nice, just soured at the end"},"accuracy":[],"embed_level":"c","question_id":"8c","trial_type":"survey","trial_index":8,"time_elapsed":1279233,"internal_node_id":"0.0-1.0-0.7-0.7","subject_id":"5da39d242a298b0012cd4393","study_id":"6259a891582d1b81b094d7e2","session_id":"626069a30cafe3a1d59a1ca6","version":2}]