[{"rt":10492,"stimulus":"<p>In this experiment, you will be presented with 8 scenarios, which you must read carefully.</p><p>After reading each scenario, you will be prompted two comprehension questions: a multiple choice question and a brief open answer question. You will be required to answer both questions for every scenario, meaning 16 questions in total.</p><p>To begin the experiment, hit the space bar.</p>","response":" ","trial_type":"html-keyboard-response","trial_index":0,"time_elapsed":10495,"internal_node_id":"0.0-0.0","subject_id":"5f2ac7deaac0ef39060b0aae","study_id":"6259a891582d1b81b094d7e2","session_id":"62606d38d2cce6dc0e00280a","version":1},{"rt":59908,"response":{"P0_Q0":null,"multiQuestion":"sincere","Explanation":"They have been friends for a long time, so Olivia would expect her friend to be honest"},"accuracy":[],"embed_level":"b","question_id":"1b","trial_type":"survey","trial_index":1,"time_elapsed":70447,"internal_node_id":"0.0-1.0-0.0-0.0","subject_id":"5f2ac7deaac0ef39060b0aae","study_id":"6259a891582d1b81b094d7e2","session_id":"62606d38d2cce6dc0e00280a","version":1},{"rt":127048,"response":{"P0_Q0":null,"multiQuestion":"sarcastic","Explanation":"She is clearly over exaggerating for comedic effect "},"accuracy":[],"embed_level":"c","question_id":"2c","trial_type":"survey","trial_index":2,"time_elapsed":197506,"internal_node_id":"0.0-1.0-0.1-0.1","subject_id":"5f2ac7deaac0ef39060b0aae","study_id":"6259a891582d1b81b094d7e2","session_id":"62606d38d2cce6dc0e00280a","version":1},{"rt":41522,"response":{"P0_Q0":null,"multiQuestion":"sincere","Explanation":"He doesn't know he mixed up salt and sugar"},"accuracy":[],"embed_level":"a","question_id":"3a","trial_type":"survey","trial_index":3,"time_elapsed":239044,"internal_node_id":"0.0-1.0-0.2-0.2","subject_id":"5f2ac7deaac0ef39060b0aae","study_id":"6259a891582d1b81b094d7e2","session_id":"62606d38d2cce6dc0e00280a","version":1},{"rt":37992,"response":{"P0_Q0":null,"multiQuestion":"sarcastic","Explanation":"Most people don't find puppies scary"},"accuracy":[],"embed_level":"b","question_id":"4b","trial_type":"survey","trial_index":4,"time_elapsed":277052,"internal_node_id":"0.0-1.0-0.3-0.3","subject_id":"5f2ac7deaac0ef39060b0aae","study_id":"6259a891582d1b81b094d7e2","session_id":"62606d38d2cce6dc0e00280a","version":1},{"rt":83288,"response":{"P0_Q0":null,"multiQuestion":"sincere","Explanation":"He doesn't know about the history of the company's conflict"},"accuracy":[],"embed_level":"c","question_id":"5c","trial_type":"survey","trial_index":5,"time_elapsed":360354,"internal_node_id":"0.0-1.0-0.4-0.4","subject_id":"5f2ac7deaac0ef39060b0aae","study_id":"6259a891582d1b81b094d7e2","session_id":"62606d38d2cce6dc0e00280a","version":1},{"rt":52843,"response":{"P0_Q0":null,"multiQuestion":"sincere","Explanation":"He does love his brother, even if they fight"},"accuracy":[],"embed_level":"a","question_id":"6a","trial_type":"survey","trial_index":6,"time_elapsed":413214,"internal_node_id":"0.0-1.0-0.5-0.5","subject_id":"5f2ac7deaac0ef39060b0aae","study_id":"6259a891582d1b81b094d7e2","session_id":"62606d38d2cce6dc0e00280a","version":1},{"rt":21645,"response":{"P0_Q0":null,"multiQuestion":"sincere","Explanation":"She has no reason to lie"},"accuracy":[],"embed_level":"a","question_id":"7a","trial_type":"survey","trial_index":7,"time_elapsed":434869,"internal_node_id":"0.0-1.0-0.6-0.6","subject_id":"5f2ac7deaac0ef39060b0aae","study_id":"6259a891582d1b81b094d7e2","session_id":"62606d38d2cce6dc0e00280a","version":1},{"rt":77077,"response":{"P0_Q0":null,"multiQuestion":"sincere","Explanation":"The trip was still nice, despite the unreciprocated and unexpressed romantic feelings"},"accuracy":[],"embed_level":"b","question_id":"8b","trial_type":"survey","trial_index":8,"time_elapsed":511963,"internal_node_id":"0.0-1.0-0.7-0.7","subject_id":"5f2ac7deaac0ef39060b0aae","study_id":"6259a891582d1b81b094d7e2","session_id":"62606d38d2cce6dc0e00280a","version":1}]