[{"rt":7893,"stimulus":"<p>In this experiment, you will be presented with 8 scenarios, which you must read carefully.</p><p>After reading each scenario, you will be prompted two comprehension questions: a multiple choice question and a brief open answer question. You will be required to answer both questions for every scenario, meaning 16 questions in total.</p><p>To begin the experiment, hit the space bar.</p>","response":" ","trial_type":"html-keyboard-response","trial_index":0,"time_elapsed":7895,"internal_node_id":"0.0-0.0","subject_id":"60ca20a5bd71514ecaa909ca","study_id":"6259a891582d1b81b094d7e2","session_id":"62606cf282100948e9aeea2b","version":2},{"rt":37045,"response":{"P0_Q0":null,"multiQuestion":"sincere","Explanation":"She doesn't like the haircut but she does not want to upset her friend - it is not a sarcastic tone"},"accuracy":[],"embed_level":"a","question_id":"1a","trial_type":"survey","trial_index":1,"time_elapsed":44979,"internal_node_id":"0.0-1.0-0.0-0.0","subject_id":"60ca20a5bd71514ecaa909ca","study_id":"6259a891582d1b81b094d7e2","session_id":"62606cf282100948e9aeea2b","version":2},{"rt":64730,"response":{"P0_Q0":null,"multiQuestion":"sincere","Explanation":"The tone is not entirely sincere because it is an exaggerated joke but it is not sarcastic"},"accuracy":[],"embed_level":"b","question_id":"2b","trial_type":"survey","trial_index":2,"time_elapsed":109722,"internal_node_id":"0.0-1.0-0.1-0.1","subject_id":"60ca20a5bd71514ecaa909ca","study_id":"6259a891582d1b81b094d7e2","session_id":"62606cf282100948e9aeea2b","version":2},{"rt":82117,"response":{"P0_Q0":null,"multiQuestion":"sincere","Explanation":"As Jack does not know he confused salt with sugar, he probably thinks his cake was actually a success and so would see the message as sincere"},"accuracy":[],"embed_level":"b","question_id":"3b","trial_type":"survey","trial_index":3,"time_elapsed":191855,"internal_node_id":"0.0-1.0-0.2-0.2","subject_id":"60ca20a5bd71514ecaa909ca","study_id":"6259a891582d1b81b094d7e2","session_id":"62606cf282100948e9aeea2b","version":2},{"rt":88527,"response":{"P0_Q0":null,"multiQuestion":"sarcastic","Explanation":"She is being sarcastic - as she is now an adult, she can make a self deprecating joke about her childhood trauma"},"accuracy":[],"embed_level":"c","question_id":"4c","trial_type":"survey","trial_index":4,"time_elapsed":280399,"internal_node_id":"0.0-1.0-0.3-0.3","subject_id":"60ca20a5bd71514ecaa909ca","study_id":"6259a891582d1b81b094d7e2","session_id":"62606cf282100948e9aeea2b","version":2},{"rt":92298,"response":{"P0_Q0":null,"multiQuestion":"sincere","Explanation":"Since Phillip went to an interview wearing the jacket, he probably think it looks good and would think it is a sincere compliment"},"accuracy":[],"embed_level":"a","question_id":"5a","trial_type":"survey","trial_index":5,"time_elapsed":372712,"internal_node_id":"0.0-1.0-0.4-0.4","subject_id":"60ca20a5bd71514ecaa909ca","study_id":"6259a891582d1b81b094d7e2","session_id":"62606cf282100948e9aeea2b","version":2},{"rt":111031,"response":{"P0_Q0":null,"multiQuestion":"sarcastic","Explanation":"As the brothers had an argument in front of David earlier, Jeremy would probably still be angry enough to make a sarcastic remark about his brother"},"accuracy":[],"embed_level":"b","question_id":"6b","trial_type":"survey","trial_index":6,"time_elapsed":483757,"internal_node_id":"0.0-1.0-0.5-0.5","subject_id":"60ca20a5bd71514ecaa909ca","study_id":"6259a891582d1b81b094d7e2","session_id":"62606cf282100948e9aeea2b","version":2},{"rt":59750,"response":{"P0_Q0":null,"multiQuestion":"sincere","Explanation":"Ana has no reason to lie about her opinion of James since they are on good terms"},"accuracy":[],"embed_level":"c","question_id":"7c","trial_type":"survey","trial_index":7,"time_elapsed":543522,"internal_node_id":"0.0-1.0-0.6-0.6","subject_id":"60ca20a5bd71514ecaa909ca","study_id":"6259a891582d1b81b094d7e2","session_id":"62606cf282100948e9aeea2b","version":2},{"rt":133297,"response":{"P0_Q0":null,"multiQuestion":"sarcastic","Explanation":"The bluntness of the message suggests sarcasm, as May is clearly disappointed about the outcome of the trip"},"accuracy":[],"embed_level":"c","question_id":"8c","trial_type":"survey","trial_index":8,"time_elapsed":676833,"internal_node_id":"0.0-1.0-0.7-0.7","subject_id":"60ca20a5bd71514ecaa909ca","study_id":"6259a891582d1b81b094d7e2","session_id":"62606cf282100948e9aeea2b","version":2}]