[{"rt":27088,"stimulus":"<p>In this experiment, you will be presented with 8 scenarios, which you must read carefully.</p><p>After reading each scenario, you will be prompted two comprehension questions: a multiple choice question and a brief open answer question. You will be required to answer both questions for every scenario, meaning 16 questions in total.</p><p>To begin the experiment, hit the space bar.</p>","response":" ","trial_type":"html-keyboard-response","trial_index":0,"time_elapsed":27091,"internal_node_id":"0.0-0.0","subject_id":"5f4a8c8347b9fe5082353a3c","study_id":"6259a891582d1b81b094d7e2","session_id":"62606cb01695ccc2fe898ef9","version":1},{"rt":158841,"response":{"P0_Q0":null,"multiQuestion":"sincere","Explanation":"while not honest it is not sarcastic."},"accuracy":[],"embed_level":"b","question_id":"1b","trial_type":"survey","trial_index":1,"time_elapsed":186001,"internal_node_id":"0.0-1.0-0.0-0.0","subject_id":"5f4a8c8347b9fe5082353a3c","study_id":"6259a891582d1b81b094d7e2","session_id":"62606cb01695ccc2fe898ef9","version":1},{"rt":322430,"response":{"P0_Q0":null,"multiQuestion":"sincere","Explanation":"response is exaggerated but not sarcastic."},"accuracy":[],"embed_level":"c","question_id":"2c","trial_type":"survey","trial_index":2,"time_elapsed":508446,"internal_node_id":"0.0-1.0-0.1-0.1","subject_id":"5f4a8c8347b9fe5082353a3c","study_id":"6259a891582d1b81b094d7e2","session_id":"62606cb01695ccc2fe898ef9","version":1},{"rt":112710,"response":{"P0_Q0":null,"multiQuestion":"sarcastic","Explanation":"Referring to him being sweet  as he got confused with sugar and salt."},"accuracy":[],"embed_level":"a","question_id":"3a","trial_type":"survey","trial_index":3,"time_elapsed":621184,"internal_node_id":"0.0-1.0-0.2-0.2","subject_id":"5f4a8c8347b9fe5082353a3c","study_id":"6259a891582d1b81b094d7e2","session_id":"62606cb01695ccc2fe898ef9","version":1},{"rt":107207,"response":{"P0_Q0":null,"multiQuestion":"sarcastic","Explanation":"it is a puppy and most people think it very cute. Julia would probably interpret response as sarcastic."},"accuracy":[],"embed_level":"b","question_id":"4b","trial_type":"survey","trial_index":4,"time_elapsed":728413,"internal_node_id":"0.0-1.0-0.3-0.3","subject_id":"5f4a8c8347b9fe5082353a3c","study_id":"6259a891582d1b81b094d7e2","session_id":"62606cb01695ccc2fe898ef9","version":1},{"rt":96111,"response":{"P0_Q0":null,"multiQuestion":"sincere","Explanation":"Eric would not have known the back story."},"accuracy":[],"embed_level":"c","question_id":"5c","trial_type":"survey","trial_index":5,"time_elapsed":824545,"internal_node_id":"0.0-1.0-0.4-0.4","subject_id":"5f4a8c8347b9fe5082353a3c","study_id":"6259a891582d1b81b094d7e2","session_id":"62606cb01695ccc2fe898ef9","version":1},{"rt":109254,"response":{"P0_Q0":null,"multiQuestion":"sarcastic","Explanation":"the note contradicts his observations of the brothers."},"accuracy":[],"embed_level":"a","question_id":"6a","trial_type":"survey","trial_index":6,"time_elapsed":933822,"internal_node_id":"0.0-1.0-0.5-0.5","subject_id":"5f4a8c8347b9fe5082353a3c","study_id":"6259a891582d1b81b094d7e2","session_id":"62606cb01695ccc2fe898ef9","version":1},{"rt":69970,"response":{"P0_Q0":null,"multiQuestion":"sarcastic","Explanation":"Ken does not know the current relationship between James and Anna."},"accuracy":[],"embed_level":"a","question_id":"7a","trial_type":"survey","trial_index":7,"time_elapsed":1003812,"internal_node_id":"0.0-1.0-0.6-0.6","subject_id":"5f4a8c8347b9fe5082353a3c","study_id":"6259a891582d1b81b094d7e2","session_id":"62606cb01695ccc2fe898ef9","version":1},{"rt":102006,"response":{"P0_Q0":null,"multiQuestion":"sincere","Explanation":"Elizabeth does not know the back story."},"accuracy":[],"embed_level":"b","question_id":"8b","trial_type":"survey","trial_index":8,"time_elapsed":1105838,"internal_node_id":"0.0-1.0-0.7-0.7","subject_id":"5f4a8c8347b9fe5082353a3c","study_id":"6259a891582d1b81b094d7e2","session_id":"62606cb01695ccc2fe898ef9","version":1}]