[{"rt":50536,"stimulus":"<p>In this experiment, you will be presented with 8 scenarios, which you must read carefully.</p><p>After reading each scenario, you will be prompted two comprehension questions: a multiple choice question and a brief open answer question. You will be required to answer both questions for every scenario, meaning 16 questions in total.</p><p>To begin the experiment, hit the space bar.</p>","response":" ","trial_type":"html-keyboard-response","trial_index":0,"time_elapsed":50537,"internal_node_id":"0.0-0.0","subject_id":"5a8f01d95292b80001235d34","study_id":"6259a891582d1b81b094d7e2","session_id":"62606c343e2e4c3cd2a8b512","version":0},{"rt":53286,"response":{"P0_Q0":null,"multiQuestion":"sincere","Explanation":"Her white lie is to prevent upset and is not sarcastic."},"accuracy":[],"embed_level":"c","question_id":"1c","trial_type":"survey","trial_index":1,"time_elapsed":103862,"internal_node_id":"0.0-1.0-0.0-0.0","subject_id":"5a8f01d95292b80001235d34","study_id":"6259a891582d1b81b094d7e2","session_id":"62606c343e2e4c3cd2a8b512","version":0},{"rt":23483,"response":{"P0_Q0":null,"multiQuestion":"sincere","Explanation":"Humour is not sarcasm."},"accuracy":[],"embed_level":"a","question_id":"2a","trial_type":"survey","trial_index":2,"time_elapsed":127355,"internal_node_id":"0.0-1.0-0.1-0.1","subject_id":"5a8f01d95292b80001235d34","study_id":"6259a891582d1b81b094d7e2","session_id":"62606c343e2e4c3cd2a8b512","version":0},{"rt":31537,"response":{"P0_Q0":null,"multiQuestion":"sincere","Explanation":"Making the cake was kind even if it tastes bad."},"accuracy":[],"embed_level":"c","question_id":"3c","trial_type":"survey","trial_index":3,"time_elapsed":158907,"internal_node_id":"0.0-1.0-0.2-0.2","subject_id":"5a8f01d95292b80001235d34","study_id":"6259a891582d1b81b094d7e2","session_id":"62606c343e2e4c3cd2a8b512","version":0},{"rt":20232,"response":{"P0_Q0":null,"multiQuestion":"sincere","Explanation":"Some people are just sacred of dogs!"},"accuracy":[],"embed_level":"a","question_id":"4a","trial_type":"survey","trial_index":4,"time_elapsed":179153,"internal_node_id":"0.0-1.0-0.3-0.3","subject_id":"5a8f01d95292b80001235d34","study_id":"6259a891582d1b81b094d7e2","session_id":"62606c343e2e4c3cd2a8b512","version":0},{"rt":103266,"response":{"P0_Q0":null,"multiQuestion":"sincere","Explanation":"Eric has no reason to assume malice."},"accuracy":[],"embed_level":"b","question_id":"5b","trial_type":"survey","trial_index":5,"time_elapsed":282433,"internal_node_id":"0.0-1.0-0.4-0.4","subject_id":"5a8f01d95292b80001235d34","study_id":"6259a891582d1b81b094d7e2","session_id":"62606c343e2e4c3cd2a8b512","version":0},{"rt":58137,"response":{"P0_Q0":null,"multiQuestion":"sarcastic","Explanation":"David has seen a fight, and doesn't know the brother's historic good relationship."},"accuracy":[],"embed_level":"c","question_id":"6c","trial_type":"survey","trial_index":6,"time_elapsed":340584,"internal_node_id":"0.0-1.0-0.5-0.5","subject_id":"5a8f01d95292b80001235d34","study_id":"6259a891582d1b81b094d7e2","session_id":"62606c343e2e4c3cd2a8b512","version":0},{"rt":33788,"response":{"P0_Q0":null,"multiQuestion":"sincere","Explanation":"Ken has no reason to believe Ana thinks James is unpleasant."},"accuracy":[],"embed_level":"b","question_id":"7b","trial_type":"survey","trial_index":7,"time_elapsed":374385,"internal_node_id":"0.0-1.0-0.6-0.6","subject_id":"5a8f01d95292b80001235d34","study_id":"6259a891582d1b81b094d7e2","session_id":"62606c343e2e4c3cd2a8b512","version":0},{"rt":36980,"response":{"P0_Q0":null,"multiQuestion":"sincere","Explanation":"Elizabeth has no context to think otherwise."},"accuracy":[],"embed_level":"a","question_id":"8a","trial_type":"survey","trial_index":8,"time_elapsed":411377,"internal_node_id":"0.0-1.0-0.7-0.7","subject_id":"5a8f01d95292b80001235d34","study_id":"6259a891582d1b81b094d7e2","session_id":"62606c343e2e4c3cd2a8b512","version":0}]