[{"rt":33500,"stimulus":"<p>In this experiment, you will be presented with 8 scenarios, which you must read carefully.</p><p>After reading each scenario, you will be prompted two comprehension questions: a multiple choice question and a brief open answer question. You will be required to answer both questions for every scenario, meaning 16 questions in total.</p><p>To begin the experiment, hit the space bar.</p>","response":" ","trial_type":"html-keyboard-response","trial_index":0,"time_elapsed":33505,"internal_node_id":"0.0-0.0","subject_id":"5e9f771561b68c0e1c57ec15","study_id":"6259a891582d1b81b094d7e2","session_id":"62606968920b17322707e022","version":0},{"rt":123466,"response":{"P0_Q0":null,"multiQuestion":"sincere","Explanation":"Olivia isn't to know that Alice is trying to branch out on her own so won't know the subtext to know that it's a sarcastic comment. She just thinks her friend is being supportive and loves it"},"accuracy":[],"embed_level":"c","question_id":"1c","trial_type":"survey","trial_index":1,"time_elapsed":157081,"internal_node_id":"0.0-1.0-0.0-0.0","subject_id":"5e9f771561b68c0e1c57ec15","study_id":"6259a891582d1b81b094d7e2","session_id":"62606968920b17322707e022","version":0},{"rt":117713,"response":{"P0_Q0":null,"multiQuestion":"sincere","Explanation":"While it's a metaphor and an exaggeration it still seems sincere. Although maybe to her partner who knows how much she's been struggling it may come off as sarcastic - this is a real 50/50 one"},"accuracy":[],"embed_level":"a","question_id":"2a","trial_type":"survey","trial_index":2,"time_elapsed":274818,"internal_node_id":"0.0-1.0-0.1-0.1","subject_id":"5e9f771561b68c0e1c57ec15","study_id":"6259a891582d1b81b094d7e2","session_id":"62606968920b17322707e022","version":0},{"rt":88116,"response":{"P0_Q0":null,"multiQuestion":"sincere","Explanation":"Since he hasn't realised that he's confused the white powders so he doesn't know that the cake is actually disgusting despite the message being sarcastic "},"accuracy":[],"embed_level":"c","question_id":"3c","trial_type":"survey","trial_index":3,"time_elapsed":362985,"internal_node_id":"0.0-1.0-0.2-0.2","subject_id":"5e9f771561b68c0e1c57ec15","study_id":"6259a891582d1b81b094d7e2","session_id":"62606968920b17322707e022","version":0},{"rt":59877,"response":{"P0_Q0":null,"multiQuestion":"sarcastic","Explanation":"Julia is just being friendly and sharing a picture of her dog and it's a new working relationship so probably thinks she's being tongue-in-cheek"},"accuracy":[],"embed_level":"a","question_id":"4a","trial_type":"survey","trial_index":4,"time_elapsed":422897,"internal_node_id":"0.0-1.0-0.3-0.3","subject_id":"5e9f771561b68c0e1c57ec15","study_id":"6259a891582d1b81b094d7e2","session_id":"62606968920b17322707e022","version":0},{"rt":73703,"response":{"P0_Q0":null,"multiQuestion":"sarcastic","Explanation":"Having it written in a reply from someone you don't know well at all seems like it could come off as sarcastic"},"accuracy":[],"embed_level":"b","question_id":"5b","trial_type":"survey","trial_index":5,"time_elapsed":496640,"internal_node_id":"0.0-1.0-0.4-0.4","subject_id":"5e9f771561b68c0e1c57ec15","study_id":"6259a891582d1b81b094d7e2","session_id":"62606968920b17322707e022","version":0},{"rt":150454,"response":{"P0_Q0":null,"multiQuestion":"sarcastic","Explanation":"The only thing David knows of their relationship is that Jeremy and Spencer have heated arguments and are brothers... the next thing he has a letter saying that he's the best brother ever. If David has a sibling of his own then maybe he'll understand that sibling relationships are up and down so think this to be sincere but not sure with the limited information"},"accuracy":[],"embed_level":"c","question_id":"6c","trial_type":"survey","trial_index":6,"time_elapsed":647140,"internal_node_id":"0.0-1.0-0.5-0.5","subject_id":"5e9f771561b68c0e1c57ec15","study_id":"6259a891582d1b81b094d7e2","session_id":"62606968920b17322707e022","version":0},{"rt":62258,"response":{"P0_Q0":null,"multiQuestion":"sarcastic","Explanation":"The last thing Ken knows about their relationship from Ana is that they had a very dramatic fight and broke up. If they don't know of their maintained friendship then they're bound to think that they really hate each other"},"accuracy":[],"embed_level":"b","question_id":"7b","trial_type":"survey","trial_index":7,"time_elapsed":709437,"internal_node_id":"0.0-1.0-0.6-0.6","subject_id":"5e9f771561b68c0e1c57ec15","study_id":"6259a891582d1b81b094d7e2","session_id":"62606968920b17322707e022","version":0},{"rt":68462,"response":{"P0_Q0":null,"multiQuestion":"sincere","Explanation":"Her trip seemed nice despite the crush and sad news about Kate on her part so it's a sincere message"},"accuracy":[],"embed_level":"a","question_id":"8a","trial_type":"survey","trial_index":8,"time_elapsed":777939,"internal_node_id":"0.0-1.0-0.7-0.7","subject_id":"5e9f771561b68c0e1c57ec15","study_id":"6259a891582d1b81b094d7e2","session_id":"62606968920b17322707e022","version":0}]