[{"rt":12357,"stimulus":"<p>In this experiment, you will be presented with 8 scenarios, which you must read carefully.</p><p>After reading each scenario, you will be prompted two comprehension questions: a multiple choice question and a brief open answer question. You will be required to answer both questions for every scenario, meaning 16 questions in total.</p><p>To begin the experiment, hit the space bar.</p>","response":" ","trial_type":"html-keyboard-response","trial_index":0,"time_elapsed":12361,"internal_node_id":"0.0-0.0","subject_id":"5973751522e11b0001f3edf3","study_id":"6259a891582d1b81b094d7e2","session_id":"6260b8f28d8556f57f72197f","version":2},{"rt":38867,"response":{"P0_Q0":null,"multiQuestion":"sarcastic","Explanation":"It clearly says she doesn't like it"},"accuracy":[],"embed_level":"a","question_id":"1a","trial_type":"survey","trial_index":1,"time_elapsed":51316,"internal_node_id":"0.0-1.0-0.0-0.0","subject_id":"5973751522e11b0001f3edf3","study_id":"6259a891582d1b81b094d7e2","session_id":"6260b8f28d8556f57f72197f","version":2},{"rt":51294,"response":{"P0_Q0":null,"multiQuestion":"sincere","Explanation":"she was genuinely worried and interested"},"accuracy":[],"embed_level":"b","question_id":"2b","trial_type":"survey","trial_index":2,"time_elapsed":102632,"internal_node_id":"0.0-1.0-0.1-0.1","subject_id":"5973751522e11b0001f3edf3","study_id":"6259a891582d1b81b094d7e2","session_id":"6260b8f28d8556f57f72197f","version":2},{"rt":40035,"response":{"P0_Q0":null,"multiQuestion":"sarcastic","Explanation":"She is lying"},"accuracy":[],"embed_level":"b","question_id":"3b","trial_type":"survey","trial_index":3,"time_elapsed":142695,"internal_node_id":"0.0-1.0-0.2-0.2","subject_id":"5973751522e11b0001f3edf3","study_id":"6259a891582d1b81b094d7e2","session_id":"6260b8f28d8556f57f72197f","version":2},{"rt":54283,"response":{"P0_Q0":null,"multiQuestion":"sincere","Explanation":"she had a trauma and is telling the truth"},"accuracy":[],"embed_level":"c","question_id":"4c","trial_type":"survey","trial_index":4,"time_elapsed":197004,"internal_node_id":"0.0-1.0-0.3-0.3","subject_id":"5973751522e11b0001f3edf3","study_id":"6259a891582d1b81b094d7e2","session_id":"6260b8f28d8556f57f72197f","version":2},{"rt":29735,"response":{"P0_Q0":null,"multiQuestion":"sarcastic","Explanation":"lying"},"accuracy":[],"embed_level":"a","question_id":"5a","trial_type":"survey","trial_index":5,"time_elapsed":226765,"internal_node_id":"0.0-1.0-0.4-0.4","subject_id":"5973751522e11b0001f3edf3","study_id":"6259a891582d1b81b094d7e2","session_id":"6260b8f28d8556f57f72197f","version":2},{"rt":94539,"response":{"P0_Q0":null,"multiQuestion":"sincere","Explanation":"they are friends"},"accuracy":[],"embed_level":"b","question_id":"6b","trial_type":"survey","trial_index":6,"time_elapsed":321329,"internal_node_id":"0.0-1.0-0.5-0.5","subject_id":"5973751522e11b0001f3edf3","study_id":"6259a891582d1b81b094d7e2","session_id":"6260b8f28d8556f57f72197f","version":2},{"rt":48664,"response":{"P0_Q0":null,"multiQuestion":"sincere","Explanation":"she wouldn't seek his advice etc if she didn't really still think he was great"},"accuracy":[],"embed_level":"c","question_id":"7c","trial_type":"survey","trial_index":7,"time_elapsed":370022,"internal_node_id":"0.0-1.0-0.6-0.6","subject_id":"5973751522e11b0001f3edf3","study_id":"6259a891582d1b81b094d7e2","session_id":"6260b8f28d8556f57f72197f","version":2},{"rt":28912,"response":{"P0_Q0":null,"multiQuestion":"sarcastic","Explanation":"lying, she was upset"},"accuracy":[],"embed_level":"c","question_id":"8c","trial_type":"survey","trial_index":8,"time_elapsed":398963,"internal_node_id":"0.0-1.0-0.7-0.7","subject_id":"5973751522e11b0001f3edf3","study_id":"6259a891582d1b81b094d7e2","session_id":"6260b8f28d8556f57f72197f","version":2}]