[{"rt":6198,"stimulus":"<p>In this experiment, you will be presented with 8 scenarios, which you must read carefully.</p><p>After reading each scenario, you will be prompted two comprehension questions: a multiple choice question and a brief open answer question. You will be required to answer both questions for every scenario, meaning 16 questions in total.</p><p>To begin the experiment, hit the space bar.</p>","response":" ","trial_type":"html-keyboard-response","trial_index":0,"time_elapsed":6202,"internal_node_id":"0.0-0.0","subject_id":"5e58436ebdccf5057ddd9190","study_id":"6259a891582d1b81b094d7e2","session_id":"62606cde5912c3ef93fb092c","version":1},{"rt":99468,"response":{"P0_Q0":null,"multiQuestion":"sincere","Explanation":"It sounds as though Alice is trying to hide her feelings by her reply, the exclamation marks look like she's excited her friend now has the same hair as her"},"accuracy":[],"embed_level":"b","question_id":"1b","trial_type":"survey","trial_index":1,"time_elapsed":105720,"internal_node_id":"0.0-1.0-0.0-0.0","subject_id":"5e58436ebdccf5057ddd9190","study_id":"6259a891582d1b81b094d7e2","session_id":"62606cde5912c3ef93fb092c","version":1},{"rt":99348,"response":{"P0_Q0":null,"multiQuestion":"sincere","Explanation":"I think Catherine is speaking from the euphoria of her PR rather than getting at anyone"},"accuracy":[],"embed_level":"c","question_id":"2c","trial_type":"survey","trial_index":2,"time_elapsed":205083,"internal_node_id":"0.0-1.0-0.1-0.1","subject_id":"5e58436ebdccf5057ddd9190","study_id":"6259a891582d1b81b094d7e2","session_id":"62606cde5912c3ef93fb092c","version":1},{"rt":59836,"response":{"P0_Q0":null,"multiQuestion":"sincere","Explanation":"He doesn't know he used salt so he'd take the message at face value, as sincere"},"accuracy":[],"embed_level":"a","question_id":"3a","trial_type":"survey","trial_index":3,"time_elapsed":264939,"internal_node_id":"0.0-1.0-0.2-0.2","subject_id":"5e58436ebdccf5057ddd9190","study_id":"6259a891582d1b81b094d7e2","session_id":"62606cde5912c3ef93fb092c","version":1},{"rt":62751,"response":{"P0_Q0":null,"multiQuestion":"sarcastic","Explanation":"If the dog is very cute to most people then Margaret's response will sound sarcastic, especially if Julia doesn't know about her aversion to bulldogs"},"accuracy":[],"embed_level":"b","question_id":"4b","trial_type":"survey","trial_index":4,"time_elapsed":327707,"internal_node_id":"0.0-1.0-0.3-0.3","subject_id":"5e58436ebdccf5057ddd9190","study_id":"6259a891582d1b81b094d7e2","session_id":"62606cde5912c3ef93fb092c","version":1},{"rt":159759,"response":{"P0_Q0":null,"multiQuestion":"sarcastic","Explanation":"If Eric knows anything about the company he would get the sarcasm, if he doesn't then he'd take it as sincere as this is a fashion magazine manager talking about fashion.  Hard to believe he wouldn't know about an ongoing conflict, I imagine that would be public or at least well-known in those circles"},"accuracy":[],"embed_level":"c","question_id":"5c","trial_type":"survey","trial_index":5,"time_elapsed":487483,"internal_node_id":"0.0-1.0-0.4-0.4","subject_id":"5e58436ebdccf5057ddd9190","study_id":"6259a891582d1b81b094d7e2","session_id":"62606cde5912c3ef93fb092c","version":1},{"rt":100999,"response":{"P0_Q0":null,"multiQuestion":"sincere","Explanation":"I don't see why he would think sarcastic, just because they fight (brothers often do)"},"accuracy":[],"embed_level":"a","question_id":"6a","trial_type":"survey","trial_index":6,"time_elapsed":588500,"internal_node_id":"0.0-1.0-0.5-0.5","subject_id":"5e58436ebdccf5057ddd9190","study_id":"6259a891582d1b81b094d7e2","session_id":"62606cde5912c3ef93fb092c","version":1},{"rt":85868,"response":{"P0_Q0":null,"multiQuestion":"sincere","Explanation":"There's nothing to suggest she doesn't mean this"},"accuracy":[],"embed_level":"a","question_id":"7a","trial_type":"survey","trial_index":7,"time_elapsed":674384,"internal_node_id":"0.0-1.0-0.6-0.6","subject_id":"5e58436ebdccf5057ddd9190","study_id":"6259a891582d1b81b094d7e2","session_id":"62606cde5912c3ef93fb092c","version":1},{"rt":50688,"response":{"P0_Q0":null,"multiQuestion":"sarcastic","Explanation":"Sounds like a vague thing people say when they are less than thrilled about something!"},"accuracy":[],"embed_level":"b","question_id":"8b","trial_type":"survey","trial_index":8,"time_elapsed":725096,"internal_node_id":"0.0-1.0-0.7-0.7","subject_id":"5e58436ebdccf5057ddd9190","study_id":"6259a891582d1b81b094d7e2","session_id":"62606cde5912c3ef93fb092c","version":1}]