[{"rt":28051,"stimulus":"<p>In this experiment, you will be presented with 8 scenarios, which you must read carefully.</p><p>After reading each scenario, you will be prompted two comprehension questions: a multiple choice question and a brief open answer question. You will be required to answer both questions for every scenario, meaning 16 questions in total.</p><p>To begin the experiment, hit the space bar.</p>","response":"-","trial_type":"html-keyboard-response","trial_index":0,"time_elapsed":28052,"internal_node_id":"0.0-0.0","subject_id":"5ea019431fa8990256915ea7","study_id":"6259a891582d1b81b094d7e2","session_id":"6260b8f61643ab9677cc0065","version":0},{"rt":193446,"response":{"P0_Q0":null,"multiQuestion":"sincere","Explanation":"Gesture and facial expression are not in the words, so Olivia is more likely to take the words at face value and believe what Alice has written."},"accuracy":[],"embed_level":"c","question_id":"1c","trial_type":"survey","trial_index":1,"time_elapsed":221542,"internal_node_id":"0.0-1.0-0.0-0.0","subject_id":"5ea019431fa8990256915ea7","study_id":"6259a891582d1b81b094d7e2","session_id":"6260b8f61643ab9677cc0065","version":0},{"rt":167004,"response":{"P0_Q0":null,"multiQuestion":"sincere","Explanation":"Gesture and facial expression are not in the words, so Jane is more likely to take the words at face value and believe what Catherine has written."},"accuracy":[],"embed_level":"a","question_id":"2a","trial_type":"survey","trial_index":2,"time_elapsed":388566,"internal_node_id":"0.0-1.0-0.1-0.1","subject_id":"5ea019431fa8990256915ea7","study_id":"6259a891582d1b81b094d7e2","session_id":"6260b8f61643ab9677cc0065","version":0},{"rt":89686,"response":{"P0_Q0":null,"multiQuestion":"sincere","Explanation":"Gesture and facial expression are not in the words, so Jack is more likely to take the words at face value and believe what Anastasia has written."},"accuracy":[],"embed_level":"c","question_id":"3c","trial_type":"survey","trial_index":3,"time_elapsed":478271,"internal_node_id":"0.0-1.0-0.2-0.2","subject_id":"5ea019431fa8990256915ea7","study_id":"6259a891582d1b81b094d7e2","session_id":"6260b8f61643ab9677cc0065","version":0},{"rt":130966,"response":{"P0_Q0":null,"multiQuestion":"sincere","Explanation":"Puppies are not usually scary or scary-looking, so Julia might think that Margaret is being jokey in a sarcastic kind of way."},"accuracy":[],"embed_level":"a","question_id":"4a","trial_type":"survey","trial_index":4,"time_elapsed":609260,"internal_node_id":"0.0-1.0-0.3-0.3","subject_id":"5ea019431fa8990256915ea7","study_id":"6259a891582d1b81b094d7e2","session_id":"6260b8f61643ab9677cc0065","version":0},{"rt":231735,"response":{"P0_Q0":null,"multiQuestion":"sincere","Explanation":"The jacket has nothing to do with the job, so Eric might interpret Phillip pointing it out as disrespectful."},"accuracy":[],"embed_level":"b","question_id":"5b","trial_type":"survey","trial_index":5,"time_elapsed":841009,"internal_node_id":"0.0-1.0-0.4-0.4","subject_id":"5ea019431fa8990256915ea7","study_id":"6259a891582d1b81b094d7e2","session_id":"6260b8f61643ab9677cc0065","version":0},{"rt":131342,"response":{"P0_Q0":null,"multiQuestion":"sarcastic","Explanation":"Having witnessed the fight between the brothers, David might interpret the statement as a negative rather than a positive comment."},"accuracy":[],"embed_level":"c","question_id":"6c","trial_type":"survey","trial_index":6,"time_elapsed":972367,"internal_node_id":"0.0-1.0-0.5-0.5","subject_id":"5ea019431fa8990256915ea7","study_id":"6259a891582d1b81b094d7e2","session_id":"6260b8f61643ab9677cc0065","version":0},{"rt":99227,"response":{"P0_Q0":null,"multiQuestion":"sincere","Explanation":"Even though she and Ken haven't spoken, he knows her well enough to believe her statement."},"accuracy":[],"embed_level":"b","question_id":"7b","trial_type":"survey","trial_index":7,"time_elapsed":1071611,"internal_node_id":"0.0-1.0-0.6-0.6","subject_id":"5ea019431fa8990256915ea7","study_id":"6259a891582d1b81b094d7e2","session_id":"6260b8f61643ab9677cc0065","version":0},{"rt":101470,"response":{"P0_Q0":null,"multiQuestion":"sarcastic","Explanation":"Not so much sarcastis as guarded because of how the break ended compared to how it began."},"accuracy":[],"embed_level":"a","question_id":"8a","trial_type":"survey","trial_index":8,"time_elapsed":1173104,"internal_node_id":"0.0-1.0-0.7-0.7","subject_id":"5ea019431fa8990256915ea7","study_id":"6259a891582d1b81b094d7e2","session_id":"6260b8f61643ab9677cc0065","version":0}]