[{"rt":18907,"stimulus":"<p>In this experiment, you will be presented with 8 scenarios, which you must read carefully.</p><p>After reading each scenario, you will be prompted two comprehension questions: a multiple choice question and a brief open answer question. You will be required to answer both questions for every scenario, meaning 16 questions in total.</p><p>To begin the experiment, hit the space bar.</p>","response":" ","trial_type":"html-keyboard-response","trial_index":0,"time_elapsed":18910,"internal_node_id":"0.0-0.0","subject_id":"55ac3198fdf99b6de3b68b23","study_id":"6259a891582d1b81b094d7e2","session_id":"6260b9109f8d412cb8ddba78","version":1},{"rt":122836,"response":{"P0_Q0":null,"multiQuestion":"sincere","Explanation":"Alice is being nice to her friend and not saying how she really feels."},"accuracy":[],"embed_level":"b","question_id":"1b","trial_type":"survey","trial_index":1,"time_elapsed":141832,"internal_node_id":"0.0-1.0-0.0-0.0","subject_id":"55ac3198fdf99b6de3b68b23","study_id":"6259a891582d1b81b094d7e2","session_id":"6260b9109f8d412cb8ddba78","version":1},{"rt":143775,"response":{"P0_Q0":null,"multiQuestion":"sincere","Explanation":"The response is based on genuine enthusiasm."},"accuracy":[],"embed_level":"c","question_id":"2c","trial_type":"survey","trial_index":2,"time_elapsed":285655,"internal_node_id":"0.0-1.0-0.1-0.1","subject_id":"55ac3198fdf99b6de3b68b23","study_id":"6259a891582d1b81b094d7e2","session_id":"6260b9109f8d412cb8ddba78","version":1},{"rt":127923,"response":{"P0_Q0":null,"multiQuestion":"sincere","Explanation":"Anastasia is beng kind and taking into account the lack of cooking skills of her friend."},"accuracy":[],"embed_level":"a","question_id":"3a","trial_type":"survey","trial_index":3,"time_elapsed":413618,"internal_node_id":"0.0-1.0-0.2-0.2","subject_id":"55ac3198fdf99b6de3b68b23","study_id":"6259a891582d1b81b094d7e2","session_id":"6260b9109f8d412cb8ddba78","version":1},{"rt":107110,"response":{"P0_Q0":null,"multiQuestion":"sincere","Explanation":"The response does represent the feelings of Margaret and is quite genuine."},"accuracy":[],"embed_level":"b","question_id":"4b","trial_type":"survey","trial_index":4,"time_elapsed":520765,"internal_node_id":"0.0-1.0-0.3-0.3","subject_id":"55ac3198fdf99b6de3b68b23","study_id":"6259a891582d1b81b094d7e2","session_id":"6260b9109f8d412cb8ddba78","version":1},{"rt":129214,"response":{"P0_Q0":null,"multiQuestion":"sarcastic","Explanation":"Phillip does not like this jacket and his response is most likley sarcastic. "},"accuracy":[],"embed_level":"c","question_id":"5c","trial_type":"survey","trial_index":5,"time_elapsed":650012,"internal_node_id":"0.0-1.0-0.4-0.4","subject_id":"55ac3198fdf99b6de3b68b23","study_id":"6259a891582d1b81b094d7e2","session_id":"6260b9109f8d412cb8ddba78","version":1},{"rt":130965,"response":{"P0_Q0":null,"multiQuestion":"sincere","Explanation":"The brothers are quite close and the sentiment the letter seems to be genuine."},"accuracy":[],"embed_level":"a","question_id":"6a","trial_type":"survey","trial_index":6,"time_elapsed":781006,"internal_node_id":"0.0-1.0-0.5-0.5","subject_id":"55ac3198fdf99b6de3b68b23","study_id":"6259a891582d1b81b094d7e2","session_id":"6260b9109f8d412cb8ddba78","version":1},{"rt":91363,"response":{"P0_Q0":null,"multiQuestion":"sincere","Explanation":"There seems to be no bad feeling between the former couple and the response is probably quite sincere."},"accuracy":[],"embed_level":"a","question_id":"7a","trial_type":"survey","trial_index":7,"time_elapsed":872395,"internal_node_id":"0.0-1.0-0.6-0.6","subject_id":"55ac3198fdf99b6de3b68b23","study_id":"6259a891582d1b81b094d7e2","session_id":"6260b9109f8d412cb8ddba78","version":1},{"rt":207665,"response":{"P0_Q0":null,"multiQuestion":"sincere","Explanation":"May was probaby not feeling so positive about the trip. Her response to the question was not totally honest but she did not want to provide personal information. "},"accuracy":[],"embed_level":"b","question_id":"8b","trial_type":"survey","trial_index":8,"time_elapsed":1080091,"internal_node_id":"0.0-1.0-0.7-0.7","subject_id":"55ac3198fdf99b6de3b68b23","study_id":"6259a891582d1b81b094d7e2","session_id":"6260b9109f8d412cb8ddba78","version":1}]