[{"rt":17688,"stimulus":"<p>In this experiment, you will be presented with 8 scenarios, which you must read carefully.</p><p>After reading each scenario, you will be prompted two comprehension questions: a multiple choice question and a brief open answer question. You will be required to answer both questions for every scenario, meaning 16 questions in total.</p><p>To begin the experiment, hit the space bar.</p>","response":" ","trial_type":"html-keyboard-response","trial_index":0,"time_elapsed":17689,"internal_node_id":"0.0-0.0","subject_id":"5e28c5b0ee669307488a185e","study_id":"6259a891582d1b81b094d7e2","session_id":"62606c2fbfd7cf1effc37b17","version":1},{"rt":57323,"response":{"P0_Q0":null,"multiQuestion":"sincere","Explanation":"As her best friend she wouldn't think her friend would be insincere with her"},"accuracy":[],"embed_level":"b","question_id":"1b","trial_type":"survey","trial_index":1,"time_elapsed":75053,"internal_node_id":"0.0-1.0-0.0-0.0","subject_id":"5e28c5b0ee669307488a185e","study_id":"6259a891582d1b81b094d7e2","session_id":"62606c2fbfd7cf1effc37b17","version":1},{"rt":97872,"response":{"P0_Q0":null,"multiQuestion":"sarcastic","Explanation":"As Jane wouldn't have believed Catherine able to lift a cow she wouldn' have taken this as a sincere message "},"accuracy":[],"embed_level":"c","question_id":"2c","trial_type":"survey","trial_index":2,"time_elapsed":172935,"internal_node_id":"0.0-1.0-0.1-0.1","subject_id":"5e28c5b0ee669307488a185e","study_id":"6259a891582d1b81b094d7e2","session_id":"62606c2fbfd7cf1effc37b17","version":1},{"rt":78677,"response":{"P0_Q0":null,"multiQuestion":"sincere","Explanation":"She wouldn't have wanted to hurt her friends feeling so has worded it in  way that seems sincere"},"accuracy":[],"embed_level":"a","question_id":"3a","trial_type":"survey","trial_index":3,"time_elapsed":251632,"internal_node_id":"0.0-1.0-0.2-0.2","subject_id":"5e28c5b0ee669307488a185e","study_id":"6259a891582d1b81b094d7e2","session_id":"62606c2fbfd7cf1effc37b17","version":1},{"rt":53320,"response":{"P0_Q0":null,"multiQuestion":"sarcastic","Explanation":"She may have believed that because everyone lse thinks her dog is cute, that MArgaret was being funny "},"accuracy":[],"embed_level":"b","question_id":"4b","trial_type":"survey","trial_index":4,"time_elapsed":304958,"internal_node_id":"0.0-1.0-0.3-0.3","subject_id":"5e28c5b0ee669307488a185e","study_id":"6259a891582d1b81b094d7e2","session_id":"62606c2fbfd7cf1effc37b17","version":1},{"rt":100774,"response":{"P0_Q0":null,"multiQuestion":"sarcastic","Explanation":"When someone sscoffs at you in an interview you don't necessarily believe they have a good opinion about something. "},"accuracy":[],"embed_level":"c","question_id":"5c","trial_type":"survey","trial_index":5,"time_elapsed":405754,"internal_node_id":"0.0-1.0-0.4-0.4","subject_id":"5e28c5b0ee669307488a185e","study_id":"6259a891582d1b81b094d7e2","session_id":"62606c2fbfd7cf1effc37b17","version":1},{"rt":61264,"response":{"P0_Q0":null,"multiQuestion":"sarcastic","Explanation":"David had just witnessed him fall out wth his brother - potentially doesn't think that he is being sincere after witnessing that "},"accuracy":[],"embed_level":"a","question_id":"6a","trial_type":"survey","trial_index":6,"time_elapsed":467031,"internal_node_id":"0.0-1.0-0.5-0.5","subject_id":"5e28c5b0ee669307488a185e","study_id":"6259a891582d1b81b094d7e2","session_id":"62606c2fbfd7cf1effc37b17","version":1},{"rt":58534,"response":{"P0_Q0":null,"multiQuestion":"sarcastic","Explanation":"If its common knowledge that they had a big bust up and Ken hasn't spoken with her since, he may believe she is being sarcastic in her reply "},"accuracy":[],"embed_level":"a","question_id":"7a","trial_type":"survey","trial_index":7,"time_elapsed":525579,"internal_node_id":"0.0-1.0-0.6-0.6","subject_id":"5e28c5b0ee669307488a185e","study_id":"6259a891582d1b81b094d7e2","session_id":"62606c2fbfd7cf1effc37b17","version":1},{"rt":81793,"response":{"P0_Q0":null,"multiQuestion":"sincere","Explanation":"Would have no reason to believe otherwise as she wasn't on the trip and didn't understand the relationship. "},"accuracy":[],"embed_level":"b","question_id":"8b","trial_type":"survey","trial_index":8,"time_elapsed":607384,"internal_node_id":"0.0-1.0-0.7-0.7","subject_id":"5e28c5b0ee669307488a185e","study_id":"6259a891582d1b81b094d7e2","session_id":"62606c2fbfd7cf1effc37b17","version":1}]