[{"rt":6892,"stimulus":"<p>In this experiment, you will be presented with 8 scenarios, which you must read carefully.</p><p>After reading each scenario, you will be prompted two comprehension questions: a multiple choice question and a brief open answer question. You will be required to answer both questions for every scenario, meaning 16 questions in total.</p><p>To begin the experiment, hit the space bar.</p>","response":" ","trial_type":"html-keyboard-response","trial_index":0,"time_elapsed":6895,"internal_node_id":"0.0-0.0","subject_id":"5a6cef05d5d4cb0001d668e7","study_id":"6259a891582d1b81b094d7e2","session_id":"62606c4840f369cfcb6a7de5","version":0},{"rt":69047,"response":{"P0_Q0":null,"multiQuestion":"sarcastic","Explanation":"Due to Alice feeling like Olivia has copied her style "},"accuracy":[],"embed_level":"c","question_id":"1c","trial_type":"survey","trial_index":1,"time_elapsed":76051,"internal_node_id":"0.0-1.0-0.0-0.0","subject_id":"5a6cef05d5d4cb0001d668e7","study_id":"6259a891582d1b81b094d7e2","session_id":"62606c4840f369cfcb6a7de5","version":0},{"rt":65888,"response":{"P0_Q0":null,"multiQuestion":"sincere","Explanation":"As Catherine is feeling proud and excited "},"accuracy":[],"embed_level":"a","question_id":"2a","trial_type":"survey","trial_index":2,"time_elapsed":141960,"internal_node_id":"0.0-1.0-0.1-0.1","subject_id":"5a6cef05d5d4cb0001d668e7","study_id":"6259a891582d1b81b094d7e2","session_id":"62606c4840f369cfcb6a7de5","version":0},{"rt":82819,"response":{"P0_Q0":null,"multiQuestion":"sincere","Explanation":"As Anastasia and Jack are best friends and she wouldn't want to hurt him "},"accuracy":[],"embed_level":"c","question_id":"3c","trial_type":"survey","trial_index":3,"time_elapsed":224811,"internal_node_id":"0.0-1.0-0.2-0.2","subject_id":"5a6cef05d5d4cb0001d668e7","study_id":"6259a891582d1b81b094d7e2","session_id":"62606c4840f369cfcb6a7de5","version":0},{"rt":85478,"response":{"P0_Q0":null,"multiQuestion":"sincere","Explanation":"As Margaret does not like dogs particularly bulldogs it is likely that she would view the dog in this way"},"accuracy":[],"embed_level":"a","question_id":"4a","trial_type":"survey","trial_index":4,"time_elapsed":310315,"internal_node_id":"0.0-1.0-0.3-0.3","subject_id":"5a6cef05d5d4cb0001d668e7","study_id":"6259a891582d1b81b094d7e2","session_id":"62606c4840f369cfcb6a7de5","version":0},{"rt":81912,"response":{"P0_Q0":null,"multiQuestion":"sincere","Explanation":"As Eric is unaware of the previous conversation and that it would be unprofessional for Phillip to mean it any other way"},"accuracy":[],"embed_level":"b","question_id":"5b","trial_type":"survey","trial_index":5,"time_elapsed":392254,"internal_node_id":"0.0-1.0-0.4-0.4","subject_id":"5a6cef05d5d4cb0001d668e7","study_id":"6259a891582d1b81b094d7e2","session_id":"62606c4840f369cfcb6a7de5","version":0},{"rt":63341,"response":{"P0_Q0":null,"multiQuestion":"sarcastic","Explanation":"As David had witnessed the previous poor behaviour"},"accuracy":[],"embed_level":"c","question_id":"6c","trial_type":"survey","trial_index":6,"time_elapsed":455624,"internal_node_id":"0.0-1.0-0.5-0.5","subject_id":"5a6cef05d5d4cb0001d668e7","study_id":"6259a891582d1b81b094d7e2","session_id":"62606c4840f369cfcb6a7de5","version":0},{"rt":81602,"response":{"P0_Q0":null,"multiQuestion":"sarcastic","Explanation":"As Ken is unaware of the ongoing friendship between Ana and James and only knows about the break up"},"accuracy":[],"embed_level":"b","question_id":"7b","trial_type":"survey","trial_index":7,"time_elapsed":537250,"internal_node_id":"0.0-1.0-0.6-0.6","subject_id":"5a6cef05d5d4cb0001d668e7","study_id":"6259a891582d1b81b094d7e2","session_id":"62606c4840f369cfcb6a7de5","version":0},{"rt":51603,"response":{"P0_Q0":null,"multiQuestion":"sincere","Explanation":"Elizabeth doesn't know about Mays feelings"},"accuracy":[],"embed_level":"a","question_id":"8a","trial_type":"survey","trial_index":8,"time_elapsed":588878,"internal_node_id":"0.0-1.0-0.7-0.7","subject_id":"5a6cef05d5d4cb0001d668e7","study_id":"6259a891582d1b81b094d7e2","session_id":"62606c4840f369cfcb6a7de5","version":0}]