[{"rt":14555,"stimulus":"<p>In this experiment, you will be presented with 8 scenarios, which you must read carefully.</p><p>After reading each scenario, you will be prompted two comprehension questions: a multiple choice question and a brief open answer question. You will be required to answer both questions for every scenario, meaning 16 questions in total.</p><p>To begin the experiment, hit the space bar.</p>","response":" ","trial_type":"html-keyboard-response","trial_index":0,"time_elapsed":14559,"internal_node_id":"0.0-0.0","subject_id":"60e0e480c45d13e3fc1aae6b","study_id":"6259a891582d1b81b094d7e2","session_id":"62606c43dafbacae6847da7d","version":0},{"rt":60839,"response":{"P0_Q0":null,"multiQuestion":"sincere","Explanation":"Olivia doesnt know that Alice is annoyed so would take it seriously"},"accuracy":[],"embed_level":"c","question_id":"1c","trial_type":"survey","trial_index":1,"time_elapsed":75582,"internal_node_id":"0.0-1.0-0.0-0.0","subject_id":"60e0e480c45d13e3fc1aae6b","study_id":"6259a891582d1b81b094d7e2","session_id":"62606c43dafbacae6847da7d","version":0},{"rt":66957,"response":{"P0_Q0":null,"multiQuestion":"sincere","Explanation":"Catherine is in a good mood about her PR"},"accuracy":[],"embed_level":"a","question_id":"2a","trial_type":"survey","trial_index":2,"time_elapsed":142562,"internal_node_id":"0.0-1.0-0.1-0.1","subject_id":"60e0e480c45d13e3fc1aae6b","study_id":"6259a891582d1b81b094d7e2","session_id":"62606c43dafbacae6847da7d","version":0},{"rt":46765,"response":{"P0_Q0":null,"multiQuestion":"sarcastic","Explanation":"saying arent you so sweet when its salty sounds sarcastic"},"accuracy":[],"embed_level":"c","question_id":"3c","trial_type":"survey","trial_index":3,"time_elapsed":189366,"internal_node_id":"0.0-1.0-0.2-0.2","subject_id":"60e0e480c45d13e3fc1aae6b","study_id":"6259a891582d1b81b094d7e2","session_id":"62606c43dafbacae6847da7d","version":0},{"rt":29801,"response":{"P0_Q0":null,"multiQuestion":"sincere","Explanation":"she doesnt like that kind of dog so would be serious"},"accuracy":[],"embed_level":"a","question_id":"4a","trial_type":"survey","trial_index":4,"time_elapsed":219201,"internal_node_id":"0.0-1.0-0.3-0.3","subject_id":"60e0e480c45d13e3fc1aae6b","study_id":"6259a891582d1b81b094d7e2","session_id":"62606c43dafbacae6847da7d","version":0},{"rt":44547,"response":{"P0_Q0":null,"multiQuestion":"sincere","Explanation":"Eric doesnt know the conversation that Phillip had earlier so would have no reason to think it wasnt sincere"},"accuracy":[],"embed_level":"b","question_id":"5b","trial_type":"survey","trial_index":5,"time_elapsed":263778,"internal_node_id":"0.0-1.0-0.4-0.4","subject_id":"60e0e480c45d13e3fc1aae6b","study_id":"6259a891582d1b81b094d7e2","session_id":"62606c43dafbacae6847da7d","version":0},{"rt":62091,"response":{"P0_Q0":null,"multiQuestion":"sarcastic","Explanation":"David has seen the argument so is unlikeyly to believe that they get on well enough for Jeremy to say he is the best"},"accuracy":[],"embed_level":"c","question_id":"6c","trial_type":"survey","trial_index":6,"time_elapsed":325908,"internal_node_id":"0.0-1.0-0.5-0.5","subject_id":"60e0e480c45d13e3fc1aae6b","study_id":"6259a891582d1b81b094d7e2","session_id":"62606c43dafbacae6847da7d","version":0},{"rt":111680,"response":{"P0_Q0":null,"multiQuestion":"sarcastic","Explanation":"Ken has the perspective of their big breakup and doesnt know the context that Ana likes James"},"accuracy":[],"embed_level":"b","question_id":"7b","trial_type":"survey","trial_index":7,"time_elapsed":437618,"internal_node_id":"0.0-1.0-0.6-0.6","subject_id":"60e0e480c45d13e3fc1aae6b","study_id":"6259a891582d1b81b094d7e2","session_id":"62606c43dafbacae6847da7d","version":0},{"rt":122589,"response":{"P0_Q0":null,"multiQuestion":"sincere","Explanation":"Presuming Elizabeth doesnt know that May has feelings for Kate she would assume that nothing went wrong"},"accuracy":[],"embed_level":"a","question_id":"8a","trial_type":"survey","trial_index":8,"time_elapsed":560245,"internal_node_id":"0.0-1.0-0.7-0.7","subject_id":"60e0e480c45d13e3fc1aae6b","study_id":"6259a891582d1b81b094d7e2","session_id":"62606c43dafbacae6847da7d","version":0}]