[{"rt":6397,"stimulus":"<p>In this experiment, you will be presented with 8 scenarios, which you must read carefully.</p><p>After reading each scenario, you will be prompted two comprehension questions: a multiple choice question and a brief open answer question. You will be required to answer both questions for every scenario, meaning 16 questions in total.</p><p>To begin the experiment, hit the space bar.</p>","response":" ","trial_type":"html-keyboard-response","trial_index":0,"time_elapsed":6399,"internal_node_id":"0.0-0.0","subject_id":"5f906d9892b0ac120238830b","study_id":"6259a891582d1b81b094d7e2","session_id":"62606d0f312b23389af8d056","version":1},{"rt":64577,"response":{"P0_Q0":null,"multiQuestion":"sincere","Explanation":"Because they have been best friends since the first grade, despite her copying her hair style I would say that Alice is being sincere because she is supportive of her friend."},"accuracy":[],"embed_level":"b","question_id":"1b","trial_type":"survey","trial_index":1,"time_elapsed":71054,"internal_node_id":"0.0-1.0-0.0-0.0","subject_id":"5f906d9892b0ac120238830b","study_id":"6259a891582d1b81b094d7e2","session_id":"62606d0f312b23389af8d056","version":1},{"rt":85416,"response":{"P0_Q0":null,"multiQuestion":"sincere","Explanation":"Jane is aware of how hard Catherine has worked and how motivating hitting her PR is so Jane would interpret the message as sincere!"},"accuracy":[],"embed_level":"c","question_id":"2c","trial_type":"survey","trial_index":2,"time_elapsed":156491,"internal_node_id":"0.0-1.0-0.1-0.1","subject_id":"5f906d9892b0ac120238830b","study_id":"6259a891582d1b81b094d7e2","session_id":"62606d0f312b23389af8d056","version":1},{"rt":58629,"response":{"P0_Q0":null,"multiQuestion":"sincere","Explanation":"Baking something for someone even if it isn't perfect is still a nice gesture and even though Jack messed it up I think he would interpret Anastasia's message as sincere as he doesn't know he messed up."},"accuracy":[],"embed_level":"a","question_id":"3a","trial_type":"survey","trial_index":3,"time_elapsed":215153,"internal_node_id":"0.0-1.0-0.2-0.2","subject_id":"5f906d9892b0ac120238830b","study_id":"6259a891582d1b81b094d7e2","session_id":"62606d0f312b23389af8d056","version":1},{"rt":29952,"response":{"P0_Q0":null,"multiQuestion":"sarcastic","Explanation":"Even though Margaret doesn't like dogs, puppies don't look scary so Julia would probably interpret the message as sarcastic."},"accuracy":[],"embed_level":"b","question_id":"4b","trial_type":"survey","trial_index":4,"time_elapsed":245130,"internal_node_id":"0.0-1.0-0.3-0.3","subject_id":"5f906d9892b0ac120238830b","study_id":"6259a891582d1b81b094d7e2","session_id":"62606d0f312b23389af8d056","version":1},{"rt":57123,"response":{"P0_Q0":null,"multiQuestion":"sincere","Explanation":"Eric doesn't know about the intense argument and the conflict the brand has had with the magazine therefore he would interpret Phillip's note as sincere. "},"accuracy":[],"embed_level":"c","question_id":"5c","trial_type":"survey","trial_index":5,"time_elapsed":302280,"internal_node_id":"0.0-1.0-0.4-0.4","subject_id":"5f906d9892b0ac120238830b","study_id":"6259a891582d1b81b094d7e2","session_id":"62606d0f312b23389af8d056","version":1},{"rt":50715,"response":{"P0_Q0":null,"multiQuestion":"sarcastic","Explanation":"David doesn't know Jeremy that well and after seeing them get into a heated argument I don't think that David would believe that Jeremy is being sincere."},"accuracy":[],"embed_level":"a","question_id":"6a","trial_type":"survey","trial_index":6,"time_elapsed":353028,"internal_node_id":"0.0-1.0-0.5-0.5","subject_id":"5f906d9892b0ac120238830b","study_id":"6259a891582d1b81b094d7e2","session_id":"62606d0f312b23389af8d056","version":1},{"rt":50946,"response":{"P0_Q0":null,"multiQuestion":"sarcastic","Explanation":"Ken probably doesn't know Ana that well and so only knowing that they had a heated argument I think Ken would interpret the message as sarcastic."},"accuracy":[],"embed_level":"a","question_id":"7a","trial_type":"survey","trial_index":7,"time_elapsed":403997,"internal_node_id":"0.0-1.0-0.6-0.6","subject_id":"5f906d9892b0ac120238830b","study_id":"6259a891582d1b81b094d7e2","session_id":"62606d0f312b23389af8d056","version":1},{"rt":57958,"response":{"P0_Q0":null,"multiQuestion":"sincere","Explanation":"Elizabeth doesn't know anything about what transpired on the trip and so when asking how it was I think Elizabeth would interpret \"It was nice,\" as it genuinely being a nice trip. "},"accuracy":[],"embed_level":"b","question_id":"8b","trial_type":"survey","trial_index":8,"time_elapsed":461988,"internal_node_id":"0.0-1.0-0.7-0.7","subject_id":"5f906d9892b0ac120238830b","study_id":"6259a891582d1b81b094d7e2","session_id":"62606d0f312b23389af8d056","version":1}]